timestamp,gyro_x,gyro_y,gyro_z,mag_x,mag_y,mag_z,gps_lat,gps_lon,vehicle_speed,heading,gnss_available
2020-01-08 10:15:46.700,-0.02157499648,0.043839998464,-0.01667499008,-1.1170002432,-32.13749952,31.66750016,52.554695,-1.463064,0.007083342222222222,0.0,True
2020-01-08 10:15:46.800,-0.0108099740159999,0.038919987712,-0.002359995136,-1.32749952,-31.5555002368,31.9445002752,52.554695,-1.463064,0.02026389475555553,0.0,True
2020-01-08 10:15:46.900,0.0187499788799999,0.022539999744,-0.003865033984,-0.7455002368,-31.8895000832,32.2829998848,52.554695,-1.463064,0.024430540088888834,0.0,True
2020-01-08 10:15:47.000,-0.0065272626894463,0.022245454710009,-0.046075746989416,-1.0509090579981848,-31.97121201699425,32.13,52.554695,-1.463064,0.005572396667002778,0.0,True
2020-01-08 10:15:47.100,0.0089683168116066,0.0236564363763557,-0.0246782146396607,-0.9603960145083656,-31.681683087007105,32.06029698553473,52.554695,-1.463064,0.014515951288435556,0.0,True
2020-01-08 10:15:47.200,0.004554981888,0.026634986496,-0.00040001024,-0.7965001984,-31.07500032,31.7365001984,52.554695,-1.463064,0.012861115022222222,0.0,True
2020-01-08 10:15:47.300,-0.0164999891394009,0.0082909076099183,-0.0121818115996369,-1.06,-31.546969867009377,31.962121074992435,52.554695,-1.463064,0.016245784694083054,0.0,True
2020-01-08 10:15:47.400,-9.902897364212453e-07,0.0107524782589961,-0.0024118814491129,-1.0695049565179924,-31.67217813048911,31.77059407245565,52.554695,-1.463064,0.006419142109379361,0.0,True
2020-01-08 10:15:47.500,-0.0030393991502874,0.0359090905799818,-0.0082818315107351,-1.0821210749924364,-31.1187885260357,31.88909094200181,52.554695,-1.463064,0.007592590916574195,0.0,True
2020-01-08 10:15:47.600,-0.0126843117373342,0.0276196176067543,-0.0238490259463203,-0.87,-31.93490219306392,31.90078436293728,52.554695,-1.463064,0.007832240454530471,0.0,True
2020-01-08 10:15:47.700,-0.0221898918591842,-0.0088687252726793,0.0030171737545187,-0.9322217740058648,-31.02767613609917,31.646161931950413,52.554695,-1.463064,0.02234848994185253,0.0,True
2020-01-08 10:15:47.800,-0.023414979584,0.0183099778559999,0.003070007552,-1.2544997632,-31.5690000384,31.45500032,52.554695,-1.463064,0.016263881244444445,0.0,True
2020-01-08 10:15:47.900,0.0035960390945198,-0.0108772266311139,0.0105752351526242,-0.9771288948143492,-31.63039609054801,31.83247501463763,52.554695,-1.463064,0.008338844799972055,0.0,True
2020-01-08 10:15:48.000,0.0043714393189363,-0.005985685961553,-0.006600021159156,-1.1442853560354531,-31.698571495743355,31.47142787731869,52.554695,-1.463064,0.02123015966310211,0.0,True
2020-01-08 10:15:48.100,0.01255247521741,0.0122148492767361,-0.0189029678276231,-0.8303960145083656,-31.710396014508365,30.99861389852762,52.554695,-1.463064,0.01877612560511367,0.0,True
2020-01-08 10:15:48.200,0.007979981568,0.00105003136,-0.000855011328,-0.6395000832,-31.5555002368,31.42250048,52.554695,-1.463064,0.0034444508444444167,0.0,True
2020-01-08 10:15:48.300,-0.015929997568,0.036639974144,-0.013619990272,-0.7409999616,-31.8054997248,31.9669996032,52.554695,-1.463064,0.014361121422222196,0.0,True
2020-01-08 10:15:48.400,-0.0131242439600847,0.0085121437012404,0.0030878925007563,-0.7278789250075636,-31.48696986700938,31.562727717024508,52.554695,-1.463064,0.02788720477774411,0.0,True
2020-01-08 10:15:48.500,-0.014572,0.044916,0.0123479999999999,-0.9496,-31.7596,32.120400000000004,52.554695,-1.463064,0.025344444444444416,0.0,True
2020-01-08 10:15:48.600,-0.0079415830441714,0.045986133915966,-0.0469782156535227,-0.97940592754435,-31.75138610147238,31.588910985448543,52.554695,-1.463064,0.0193206835739425,0.0,True
2020-01-08 10:15:48.700,-0.002395016192,0.007320003072,-0.023339976704,-0.8985001216,-31.47750016,32.26749952,52.554695,-1.463064,0.03136110862222222,0.0,True
2020-01-08 10:15:48.800,-0.0193999808,0.009479991808,0.00744999936,-1.0509999616,-31.6704999168,31.6570001152,52.554695,-1.463064,0.025805545955555526,0.0,True
2020-01-08 10:15:48.900,0.006084999936,-0.0008899978239999,0.007980005888,-1.0,-31.5509999616,31.8385001216,52.554695,-1.463064,0.014263894044444444,0.0,True
2020-01-08 10:15:49.000,0.0016782075978627,0.0068118925714517,0.0127405868218547,-1.0178218243387105,-31.425742398588707,31.934653310758065,52.554695,-1.463064,0.019460942190860166,0.0,True
2020-01-08 10:15:49.100,-0.0197626503033217,0.0289838773990349,-0.0022687051029432,-1.0846467193148497,-31.016969574728872,31.49919235722154,52.554695,-1.463064,0.011846226880224499,0.0,True
2020-01-08 10:15:49.200,-0.003430016768,-0.0031499968,0.011179991808,-0.8144997632,-31.27000064,31.1945002752,52.554695,-1.463064,0.02318055608888889,0.0,True
2020-01-08 10:15:49.300,-0.021679982848,0.000739998464,8.999910399999997e-05,-0.5840003584,-32.08249984,31.5795000832,52.554695,-1.463064,0.021513878755555528,0.0,True
2020-01-08 10:15:49.400,0.0052212270408229,0.0004424305503479,-0.000524240339885,-1.0221210749924363,-31.794242149984875,31.72787892500757,52.554695,-1.463064,0.007887204777744138,0.0,True
2020-01-08 10:15:49.500,0.0228029668137611,0.0123227736223516,-0.0033039642005317,-0.8400990289736422,-31.38108911593766,31.930495043482008,52.554695,-1.463064,0.008220572865841528,0.0,True
2020-01-08 10:15:49.600,-0.007195003392,0.020464986624,-0.026784964096,-0.92499968,-31.40249984,31.88,52.554695,-1.463064,0.01379166151111111,0.0,True
2020-01-08 10:15:49.700,-0.011189997824,0.00975003008,0.018034987776,-0.6035004416,-31.2365001984,31.8694999552,52.554695,-1.463064,0.006944444444444445,0.0,True
2020-01-08 10:15:49.800,-0.0097697022902934,0.0474727192095552,-0.0007000090504992,-1.1793939009978822,-31.51818188400363,31.81,52.554695,-1.463064,0.008922566083728305,0.0,True
2020-01-08 10:15:49.900,-0.01795247521741,0.0316891068128993,-0.0138445539133806,-1.14059407245565,-31.600990086964018,31.781485130446026,52.554695,-1.463064,0.018723871578602887,0.0,True
2020-01-08 10:15:50.000,-0.016004992768,0.01762501504,-0.0115050094079999,-1.1929997568,-31.4714998784,31.7605005568,52.554695,-1.463064,0.011944444444444443,0.0,True
2020-01-08 10:15:50.100,-0.003759988736,0.032319977472,-0.021809990656,-0.87,-31.3190000384,32.42499968,52.554695,-1.463064,0.014361121422222196,0.0,True
2020-01-08 10:15:50.200,0.007329983488,0.00300000256,-0.007254990848,-0.8609999616,-31.40750016,32.0285001216,52.554695,-1.463064,0.02609721386666664,0.0,True
2020-01-08 10:15:50.300,-0.0124484770595703,0.0045060537496218,0.0046727264499546,-0.7630301329906212,-31.6775759660115,32.16121201699425,52.554695,-1.463064,0.015294613861169917,0.0,True
2020-01-08 10:15:50.400,0.0032910914478203,-0.0018702943494934,0.0019108901455145,-0.5586138985276189,-31.97940592754435,31.990495043482007,52.554695,-1.463064,0.01602035144963964,0.0,True
2020-01-08 10:15:50.500,0.017364976384,0.021470003712,-0.006120000512,-0.8895000832,-31.8429998848,31.97750016,52.554695,-1.463064,0.011694446933333333,0.0,True
2020-01-08 10:15:50.600,-0.010609985536,0.021419978752,-0.0019999795199999,-0.9909999616,-31.6419997952,32.1990000384,52.554695,-1.463064,0.013208325688888889,0.0,True
2020-01-08 10:15:50.700,0.0055554306252233,-0.0064732657256337,0.0194227439668872,-0.9117820399410944,-31.463564814932163,32.195049235674766,52.554695,-1.463064,0.0051182719341305,0.0,True
2020-01-08 10:15:50.800,-0.0115181785741067,0.0003495370023195,-0.0130636309568446,-0.7061612436937414,-31.946262169689103,31.90545476172621,52.554695,-1.463064,0.016944444444444443,0.0,True
2020-01-08 10:15:50.900,-0.0101150039039999,0.02499997696,-0.007309991936,-0.5420004352000001,-31.62,31.9669996032,52.554695,-1.463064,0.01590277333333333,0.0,True
2020-01-08 10:15:51.000,-0.0118302904693071,0.0043848846319937,0.0012787801995764,-1.0260602659812423,-31.58212107499244,31.53393973401876,52.554695,-1.463064,0.011052192361321196,0.0,True
2020-01-08 10:15:51.100,0.0088990107241256,0.0469772192806142,-0.0082396024646985,-0.6093069999569108,-31.43970301446528,32.03148513044602,52.554695,-1.463064,0.01646039573288,0.0,True
2020-01-08 10:15:51.200,0.01287498752,-0.020409985536,0.003339995904,-1.26500032,-31.73499968,31.88,52.554695,-1.463064,0.012722217244444445,0.0,True
2020-01-08 10:15:51.300,-0.005815009024,-0.0032100085759999,0.004335027456,-1.61499968,-31.4045004032,31.91750016,52.554695,-1.463064,0.005777776355555528,0.0,True
2020-01-08 10:15:51.400,-0.0155499904,-0.013909997056,0.033944970752,-1.1614998784,-31.9670001152,32.1480000768,52.554695,-1.463064,0.004513891555555528,0.0,True
2020-01-08 10:15:51.500,-0.004615007744,-0.007344988672,-0.00399999616,-1.0660002816,-32.08249984,32.2590000384,52.554695,-1.463064,0.00818055608888886,0.0,True
2020-01-08 10:15:51.600,-0.01354999424,0.009545007872,0.001009999616,-1.4294999552,-31.8985001216,32.263499801600005,52.554695,-1.463064,0.011305565866666666,0.0,True
2020-01-08 10:15:51.700,-0.005329997568,0.021710007296,-0.00415001984,-1.3519999232000002,-31.9669996032,32.0570002432,52.554695,-1.463064,0.024999999999999998,0.0,True
2020-01-08 10:15:51.800,-0.0049950123519999,0.027484983296,-0.025354978048,-1.25,-31.4865001984,32.41750016,52.554695,-1.463064,0.025291667911111083,0.0,True
2020-01-08 10:15:51.900,-0.019329991168,0.007010007296,0.004310002176,-1.25,-31.6554995968,32.66750016,52.554695,-1.463064,0.027236112355555526,0.0,True
2020-01-08 10:15:52.000,-0.0069333309198668,0.0180030350202601,0.0040787765793767,-1.2590909420018153,-31.15787892500757,32.860302958996066,52.554695,-1.463064,0.02846801194436039,0.0,True
2020-01-08 10:15:52.100,-0.00304,0.021316,-0.00836,-1.19,-31.3012,32.71,52.554695,-1.463064,0.025933333333333333,0.0,True
2020-01-08 10:15:52.200,-0.0028811885504561,0.0026653479701214,0.0130148482628741,-0.6788119564749031,-30.88930689857071,32.53960398549163,52.554695,-1.463064,0.022315729872233667,0.0,True
2020-01-08 10:15:52.300,-0.004084989696,0.011234985216,-0.011389988864,-1.2919999232,-30.5734998016,32.7214998784,52.554695,-1.463064,0.00938889457777775,0.0,True
2020-01-08 10:15:52.400,0.006464986624,-0.008430000128,0.0052300078079999,-1.1794999552,-30.3670002432,32.6170002432,52.554695,-1.463064,0.01606944071111111,0.0,True
2020-01-08 10:15:52.500,-0.011735001856,-0.0078499968,0.0129449886719999,-1.12,-30.7080000768,32.9955002368,52.554695,-1.463064,0.010944443733333333,0.0,True
2020-01-08 10:15:52.600,-0.013989999104,-0.006480012288,0.002655020288,-1.08249984,-30.81,33.27249984,52.554695,-1.463064,0.010916670577777749,0.0,True
2020-01-08 10:15:52.700,-0.011194993152,-0.020444989952,0.025639983104,-0.9645004032,-30.7814998784,33.13500032,52.554695,-1.463064,0.015944443733333306,0.0,True
2020-01-08 10:15:52.800,-0.004065008384,-0.009515010304,0.006620014592,-1.4159996416,-30.65750016,33.52249984,52.554695,-1.463064,0.015,0.0,True
2020-01-08 10:15:52.900,-0.0131242349095855,-0.0165484607686718,0.0198787657187777,-0.9672728260054456,-30.88060609900212,33.29181811599637,52.554695,-1.463064,0.0131902291385275,0.0,True
2020-01-08 10:15:53.000,-0.0015475247825899,0.012002964786037,-0.0074613817418656,-1.1104950434820078,-31.038217884019254,33.15990097102635,52.554695,-1.463064,0.0035396042671199724,0.0,True
2020-01-08 10:15:53.100,-0.001589999104,-0.0229799521279999,0.022469970432,-1.0044997632,-31.5419999232,32.9534998016,52.554695,-1.463064,0.007152782222222222,0.0,True
2020-01-08 10:15:53.200,-0.000670001152,0.033639970304,-0.012434981376,-0.72750016,-31.40249984,32.61499968,52.554695,-1.463064,0.013513890844444416,0.0,True
2020-01-08 10:15:53.300,-0.0024121219800423,0.0016242693014824,0.003390876838221,-0.996060809011194,-31.132424033988503,32.19909094200181,52.554695,-1.463064,0.0182154958337535,0.0,True
2020-01-08 10:15:53.400,-0.0024752468120375,0.0393188094218198,-0.0381039550757735,-1.2608910579903734,-30.870198057947285,32.299108942009624,52.554695,-1.463064,0.02652365016240097,0.0,True
2020-01-08 10:15:53.500,0.0038181829700635,0.0259424504614461,0.001166647358935,-1.0,-31.199090942001817,32.597878925007564,52.554695,-1.463064,0.008350169416725471,0.0,True
2020-01-08 10:15:53.600,0.0062019805794728,0.0659138610147238,-0.0324702994188035,-0.9508910579903732,-31.240495043482007,32.672178130489115,52.554695,-1.463064,0.011100110708100946,0.0,True
2020-01-08 10:15:53.700,0.0074302958996066,0.0489211618772286,-0.043575725268218,-0.7460608090111941,-31.21727282600545,31.9960608090112,52.554695,-1.463064,0.016186865944293166,0.0,True
2020-01-08 10:15:53.800,-0.0022376228990877,-0.023857422610644,0.0044039591312216,-1.0108910579903734,-31.43970301446528,32.32108911593766,52.554695,-1.463064,0.012252475442712693,0.0,True
2020-01-08 10:15:53.900,0.001654985728,0.003480004608,-0.006515001344,-0.7214998784,-31.7919999232,32.38,52.554695,-1.463064,0.012847217777777777,0.0,True
2020-01-08 10:15:54.000,-0.012829980928,0.01770003456,-0.013910023936,-0.6170002432,-31.65249984,32.41750016,52.554695,-1.463064,0.008319450311111082,0.0,True
2020-01-08 10:15:54.100,0.011389995264,0.052334951936,-0.0366549614079999,-0.97750016,-31.36499968,32.7140003584,52.554695,-1.463064,0.015361107911111083,0.0,True
2020-01-08 10:15:54.200,0.00269998976,-0.007104981248,0.00964997888,-1.1044996352,-30.816999475200003,33.30250048,52.554695,-1.463064,0.011527779555555555,0.0,True
2020-01-08 10:15:54.300,-0.010359997696,0.009159963136,-0.013359978496,-0.65750016,-30.2145004032,33.8829997568,52.554695,-1.463064,0.013013885155555526,0.0,True
2020-01-08 10:15:54.400,-0.00647499648,-0.03664998656,0.01242498816,-0.9180002048,-30.7965001984,33.59750016,52.554695,-1.463064,0.008055555555555528,0.0,True
2020-01-08 10:15:54.500,-0.0056465535027665,-0.0227059597344695,-0.0029584141677079,-1.0875242503123963,-30.9857422103713,33.71792034086042,52.554695,-1.463064,0.007766775262555027,0.0,True
2020-01-08 10:15:54.600,-0.0226142458589441,-0.0422142630997379,-0.0018571495743352,-0.5442860613406546,-30.640000626937955,33.11857086880539,52.554695,-1.463064,0.007103182377702833,0.0,True
2020-01-08 10:15:54.700,0.00780495043482,-0.0277039621728077,-0.0077445549272427,-0.7402969855347236,-31.13108911593766,32.69,52.554695,-1.463064,0.012879537842259389,0.0,True
2020-01-08 10:15:54.800,0.00399998592,-0.0438750054399999,-0.00742498176,-0.3609999616,-31.1794999552,32.6239997184,52.554695,-1.463064,0.010444438044444415,0.0,True
2020-01-08 10:15:54.900,-0.010484982016,-0.052390005504,0.016469998592,-0.2634998015999999,-31.1305000448,32.1089993984,52.554695,-1.463064,0.0033194503111110833,0.0,True
2020-01-08 10:15:55.000,0.00867497984,-0.062565012224,0.013894996992,0.03750016,-31.22750016,31.2454997248,52.554695,-1.463064,0.010944443733333333,0.0,True
2020-01-08 10:15:55.100,-0.0166302977097065,-0.0747999855192012,0.0094757560399152,0.2696970410039331,-31.524848792016943,30.97393973401876,52.554695,-1.463064,0.011978121639283862,0.0,True
2020-01-08 10:15:55.200,-0.0095199999999999,-0.0544,0.006204,0.4392,-31.8704,31.2504,52.554695,-1.463064,0.02114444444444444,0.0,True
2020-01-08 10:15:55.300,-0.0157326734781297,-0.0679891108683474,0.002688119564749,0.889406028930553,-31.178910884062343,30.07782186951089,52.554695,-1.463064,0.011243124396083222,0.0,True
2020-01-08 10:15:55.400,-0.012369978112,-0.078579975168,0.008459997696,1.5354995967999998,-31.1109999616,30.8009999616,52.554695,-1.463064,0.01181944391111111,0.0,True
2020-01-08 10:15:55.500,0.0130849845759999,-0.04987501824,0.005640001024,1.0,-31.13500032,30.8445004032,52.554695,-1.463064,0.010652775822222195,0.0,True
2020-01-08 10:15:55.600,-0.007670001152,-0.069359979776,0.007510002176,1.07500032,-31.4759996416,31.2014992384,52.554695,-1.463064,0.013305577955555526,0.0,True
2020-01-08 10:15:55.700,-0.007339992064,-0.042304999168,0.0123050081279999,1.4909999616,-31.1305005568,30.11499968,52.554695,-1.463064,0.045597233066666666,0.0,True
2020-01-08 10:15:55.800,4.9986559999999625e-05,-0.040794998272,0.018614980864,1.4955002368,-31.8609999616,29.7365001984,52.554695,-1.463064,0.06133333902222222,0.0,True
2020-01-08 10:15:55.900,-0.018235001856,-0.036279990528,-0.005209993216,1.7634998016,-31.8670002432,29.9714998784,52.554695,-1.463064,0.07459724657777778,0.0,True
2020-01-08 10:15:56.000,-0.018434990336,-0.021179989248,0.004355002368,1.5,-32.15249984,29.84750016,52.554695,-1.463064,0.11340280533333333,0.0,True
2020-01-08 10:15:56.100,-0.003829992448,-0.0078450040319999,0.006629996288,1.53750016,-31.9580000768,30.02249984,52.554695,-1.463064,0.14954166471111113,0.0,True
2020-01-08 10:15:56.200,0.0048363586997277,-0.012018177539764,-0.0005121292204417,1.75,-32.07969704100393,29.74484824898699,52.554695,-1.463064,0.15452022944595717,0.0,True
2020-01-08 10:15:56.300,-0.003568,-0.005464,-0.00866,1.7804,-32.1692,29.3688,52.554695,-1.463064,0.19965555555555556,0.0,True
2020-01-08 10:15:56.400,-0.0052237608705019,-0.0046118804352509,0.0075168278284849,1.930495043482008,-32.001386101472384,29.19118804352509,52.554695,-1.463064,0.21485698631201772,0.0,True
2020-01-08 10:15:56.500,0.00432498688,-0.000310008576,-0.0231049927679999,1.8604999168,-31.76500032,28.5885001216,52.554695,-1.463064,0.2367917383111111,0.0,True
2020-01-08 10:15:56.600,-0.01370000256,-0.010004992768,-0.009704983808,1.7590000384,-32.0579994368,28.7034998016,52.554695,-1.463064,0.33481945671111113,0.0,True
2020-01-08 10:15:56.700,-0.016664998144,-0.004465017344,0.0114249983999999,1.84750016,-31.38500032,28.36499968,52.554695,-1.463064,0.3514027790222222,0.0,True
2020-01-08 10:15:56.800,-0.0127606008497125,-0.0234090760991831,0.0078302977097065,2.0887879830057483,-31.82969704100393,28.015757850015127,52.554695,-1.463064,0.3644192330578246,0.0,True
2020-01-08 10:15:56.900,-0.0041138610147238,-0.0033673285495943,0.0030059427522805,2.210396014508365,-31.96851486955397,28.311683087007104,52.554695,-1.463064,0.4376925253585199,0.0,True
2020-01-08 10:15:57.000,-0.0017121237901421,-0.0167363568896278,0.0158878599189592,2.0575759660114965,-32.00636322497731,27.65727282600545,52.554695,-1.463064,0.491919202889494,0.0,True
2020-01-08 10:15:57.100,-0.0055415840580334,-0.0035277210155855,-0.0114465334789915,2.329306898570708,-31.360495043482008,27.75138610147238,52.554695,-1.463064,0.5044884460564851,0.0,True
2020-01-08 10:15:57.200,-0.00635000704,0.0088749900799999,-0.002005001728,2.0419999232,-31.4315005184,27.40249984,52.554695,-1.463064,0.4964028430222222,0.0,True
2020-01-08 10:15:57.300,-0.013464990464,-0.002214991104,-0.007360013056,2.0615005184,-32.1109999616,27.1990000384,52.554695,-1.463064,0.585430565688889,0.0,True
2020-01-08 10:15:57.400,-0.001010000896,0.0086399959039999,-0.02192498816,2.6944997632,-32.013499801600005,27.2590000384,52.554695,-1.463064,0.5970972145777778,0.0,True
2020-01-08 10:15:57.500,-0.0018249984,0.008360022016,-0.0083000089599999,2.4070001152,-31.82500032,27.2919999232,52.554695,-1.463064,0.5917361315555556,0.0,True
2020-01-08 10:15:57.600,0.001230003968,0.035304990208,-0.021520005632,2.4954997248,-32.2409999616,27.2740003584,52.554695,-1.463064,0.6138055338666667,0.0,True
2020-01-08 10:15:57.700,0.004669992192,0.022194999552,-0.028744998912,2.1855002368,-32.15249984,27.7319999232,52.554695,-1.463064,0.5724166129777778,0.0,True
2020-01-08 10:15:57.800,-0.00329998976,0.020984997376,-0.026504996608,2.5090000384,-31.9204999168,27.63,52.554695,-1.463064,0.5090278115555555,0.0,True
2020-01-08 10:15:57.900,0.007179986688,0.016989997824,-0.022270001152,2.4759996416,-31.7634998016,27.5729997568,52.554695,-1.463064,0.5473055274666666,0.0,True
2020-01-08 10:15:58.000,-0.009764996864,0.013379996928,-0.022764995584,1.9909999616,-31.5,27.2319999232,52.554695,-1.463064,0.5008332942222222,0.0,True
2020-01-08 10:15:58.100,-0.005194998272,0.0056999846399999,-0.0144999897599999,1.8934998016,-31.6305005568,27.13,52.554695,-1.463064,0.4480138851555555,0.0,True
2020-01-08 10:15:58.200,-0.002915000064,-0.01567500416,-0.001110000896,1.70500032,-32.2859996416,27.09249984,52.554695,-1.463064,0.43509718826666666,0.0,True
2020-01-08 10:15:58.300,-0.000359988736,-0.020029995008,-0.003065003264,2.1480000768,-31.7634998016,26.8980000768,52.554695,-1.463064,0.3898333326222222,0.0,True
2020-01-08 10:15:58.400,0.01429999872,-0.017945019392,-0.005434991616,2.1089993984,-31.61250048,26.9534998016,52.554695,-1.463064,0.39084723057777776,0.0,True
2020-01-08 10:15:58.500,0.011759996416,-0.03604996736,0.002744987392,1.2829998848,-32.2034998016,26.72750016,52.554695,-1.463064,0.3874027157333333,0.0,True
2020-01-08 10:15:58.600,0.003879986688,0.00399998592,-0.011194988032,1.1480000767999998,-31.8919997952,26.9580000768,52.554695,-1.463064,0.3045416647111111,0.0,True
2020-01-08 10:15:58.700,-0.013004996608,-0.012659991296,0.004639999744,1.2409999616,-31.6860002816,27.0795000832,52.554695,-1.463064,0.31048614755555554,0.0,True
2020-01-08 10:15:58.800,-0.006534991616,-0.002465005824,-0.0021800276479999,1.1239997184,-31.98499968,27.1434998016,52.554695,-1.463064,0.3493055146666667,0.0,True
2020-01-08 10:15:58.900,0.004254998528,-0.009044995072,-0.03807499648,0.6839997184,-31.6260002816,26.9265001984,52.554695,-1.463064,0.28945830968888886,0.0,True
2020-01-08 10:15:59.000,0.0048350108159999,-0.00295000192,-0.02979998464,0.3295000832,-31.9429997568,27.0579994368,52.554695,-1.463064,0.25805555555555554,0.0,True
2020-01-08 10:15:59.100,0.01717499136,-0.003939993344,-0.0124000128,0.3934998016,-31.6485001216,26.3205000448,52.554695,-1.463064,0.25488887537777777,0.0,True
2020-01-08 10:15:59.200,0.001829983488,0.00625000576,-0.0252749824,0.0354995968,-31.81,26.3694999552,52.554695,-1.463064,0.24190279893333333,0.0,True
2020-01-08 10:15:59.300,-0.01919999616,0.01299999616,-0.007705024768,-0.42499968,-31.7439997184,26.4135004416,52.554695,-1.463064,0.27120833848888887,0.0,True
2020-01-08 10:15:59.400,-0.011984990976,0.00557499008,-0.0343449733119999,-0.0180000768,-31.5395007232,26.96249984,52.554695,-1.463064,0.2771388849777778,0.0,True
2020-01-08 10:15:59.500,0.004395018752,-0.011545016832,4.995328000000033e-06,-0.1109999616,-32.5285001216,26.7409999616,52.554695,-1.463064,0.27315278293333334,0.0,True
2020-01-08 10:15:59.600,0.029585001216,-0.034170001152,-0.008345009152,-0.13500032,-32.5294993152,26.61499968,52.554695,-1.463064,0.27999999999999997,0.0,True
2020-01-08 10:15:59.700,0.027269983232,-0.03299998848,-0.017154985728,-0.5885001216000001,-31.5929998848,26.2365001984,52.554695,-1.463064,0.28916670577777775,0.0,True
2020-01-08 10:15:59.800,0.004189996544,-0.02287502208,-0.000465009664,-0.6554995968,-31.4490000384,26.4909999616,52.554695,-1.463064,0.34048610844444444,0.0,True
2020-01-08 10:15:59.900,-0.006415025664,-0.053985007616,-0.010779989248,-0.1680002048,-31.5090000384,26.4685001216,52.554695,-1.463064,0.33590277333333335,0.0,True
2020-01-08 10:16:00.000,-0.034139972864,-0.059239979264,0.001444991232,-0.5045002752,-31.6440003584,26.70500032,52.554695,-1.463064,0.34333339022222226,0.0,True
2020-01-08 10:16:00.100,0.0015515138899304,-0.0393818459915339,-0.007821203509525,-0.7184842999697455,-32.063939190988805,27.08151497599032,52.554695,-1.463064,0.4202777828058329,0.0,True
2020-01-08 10:16:00.200,-0.0018257434776988,-0.0791207900012926,0.0053732672464267,0.13,-31.81970301446528,26.821089115937657,52.554695,-1.463064,0.4250192500011969,0.0,True
2020-01-08 10:16:00.300,-0.01030000384,-0.069755034368,0.006740008704,0.2140003583999999,-32.15249984,26.8514998784,52.554695,-1.463064,0.41413891128888886,0.0,True
2020-01-08 10:16:00.400,-0.0150212107499243,-0.1157484861100695,0.0196181865902632,0.6809090579981847,-31.90212107499244,26.7460608090112,52.554695,-1.463064,0.443594275027719,0.0,True
2020-01-08 10:16:00.500,-0.00878118550887,-0.115640592754435,0.0225326704365436,0.579306898570708,-31.65990097102636,27.020396014508364,52.554695,-1.463064,0.44955721054450304,0.0,True
2020-01-08 10:16:00.600,0.010009986816,-0.107880013568,0.00285001728,0.3580002048,-31.5180000768,26.7259996416,52.554695,-1.463064,0.4970416967111111,0.0,True
2020-01-08 10:16:00.700,-0.0037499839999999,-0.123919991552,0.022019983872,0.7605005568000001,-31.6680002048,26.3340003584,52.554695,-1.463064,0.5316944220444444,0.0,True
2020-01-08 10:16:00.800,0.016269994752,-0.114185006336,0.0051000192,1.3784994816,-31.9114998784,26.7829998848,52.554695,-1.463064,0.5096111438222222,0.0,True
2020-01-08 10:16:00.900,0.0076949931519999,-0.118489982464,0.0282449899519999,0.7080000768,-31.7409999616,26.6480000768,52.554695,-1.463064,0.5542638940444444,0.0,True
2020-01-08 10:16:01.000,-0.002720005632,-0.0982000128,0.009079975168,0.8580002048,-31.69,26.7319999232,52.554695,-1.463064,0.5696528142222222,0.0,True
2020-01-08 10:16:01.100,-0.012555010048,-0.112409988096,-0.020719986432,1.2140003584,-31.76500032,26.6104999168,52.554695,-1.463064,0.6085971818666667,0.0,True
2020-01-08 10:16:01.200,-0.024009991936,-0.094334990336,-0.0071100188159999,1.5684994816,-32.1044996352,26.5660002816,52.554695,-1.463064,0.5735834126222221,0.0,True
2020-01-08 10:16:01.300,-0.014545005312,-0.086210020096,-0.030869994752,0.99250048,-31.65750016,26.9685001216,52.554695,-1.463064,0.6628471537777778,0.0,True
2020-01-08 10:16:01.400,-0.018434986496,-0.107154975488,-0.024605003008,1.6014998784,-31.83249984,27.0639997184,52.554695,-1.463064,0.5909861923555556,0.0,True
2020-01-08 10:16:01.500,-0.0017750054399999,-0.08555004672,-0.026259990016,1.40249984,-31.6109999616,26.61499968,52.554695,-1.463064,0.6951388728888889,0.0,True
2020-01-08 10:16:01.600,-0.009285001216,-0.141644974592,-0.00879998208,1.2080000768,-31.6545004032,26.1329997568,52.554695,-1.463064,0.6788472433777778,0.0,True
2020-01-08 10:16:01.700,-0.0102849973759999,-0.1229450641919999,0.019065017344,1.3295000832,-32.3490006784,25.8009999616,52.554695,-1.463064,0.7086111182222222,0.0,True
2020-01-08 10:16:01.800,-0.005659995136,-0.204269983232,0.039939990784,1.5060002816,-33.1179994368,25.7319999232,52.554695,-1.463064,0.7174305528888889,0.0,True
2020-01-08 10:16:01.900,-0.000820006912,-0.183905008128,0.02897500544,1.99250048,-32.342999884799994,25.5819997952,52.554695,-1.463064,0.7165972337777778,0.0,True
2020-01-08 10:16:02.000,-0.0066249856,-0.19590000512,0.03087497728,2.5639997184,-32.2455002368,25.27249984,52.554695,-1.463064,0.7333194503111111,0.0,True
2020-01-08 10:16:02.100,0.0074696787589955,-0.1984272572591468,0.0035939498705778,2.1521210749924364,-32.56,24.92818134097368,52.554695,-1.463064,0.7424579173336023,0.0,True
2020-01-08 10:16:02.200,-0.016945542175393,-0.1779534675348705,0.0192138610147238,1.9590099130359844,-32.58059407245565,24.34841594196654,52.554695,-1.463064,0.75,0.0,True
2020-01-08 10:16:02.300,-0.0020151696710014,-0.1899514921687323,0.0140393864795885,2.2221217990323723,-32.64151497599032,24.953635507952804,52.554695,-1.463064,0.753619541722945,0.0,True
2020-01-08 10:16:02.400,-0.0262279999999999,-0.154944,-0.000236,3.2196,-32.4708,23.59,52.554695,-1.463064,0.7794888888888889,0.0,True
2020-01-08 10:16:02.500,-0.0068346540576025,-0.1595901001442218,-0.0109881165231629,3.7090099130359846,-33.00950495651799,23.408514869553976,52.554695,-1.463064,0.80334433092006,0.0,True
2020-01-08 10:16:02.600,-0.010884996096,-0.16519998336,0.00654999296,3.7079995648,-33.0419999232,23.6545004032,52.554695,-1.463064,0.7809722524444443,0.0,True
2020-01-08 10:16:02.700,-0.006195002112,-0.143445001472,-0.0009249919999999,3.2230003968,-32.9490000384,24.1059996416,52.554695,-1.463064,0.8170277603555556,0.0,True
2020-01-08 10:16:02.800,-0.0066899901439999,-0.137239965184,0.00512498048,3.6284994816,-32.8679994368,23.7515005184,52.554695,-1.463064,0.7968889016888889,0.0,True
2020-01-08 10:16:02.900,0.0045666600296339,-0.104151562762626,-0.0186636286295734,3.071818659026321,-32.14878798300575,24.37333309198669,52.554695,-1.463064,0.8175505183062868,0.0,True
2020-01-08 10:16:03.000,-0.0032920776821086,-0.1649366255123171,-0.0084108921732386,3.81,-32.34009902897365,23.95089105799037,52.554695,-1.463064,0.839771728260193,0.0,True
2020-01-08 10:16:03.100,0.0024049697279999,-0.11152506368,-0.010059968256,3.7259996416,-32.38749952,23.6059996416,52.554695,-1.463064,0.8383888440888889,0.0,True
2020-01-08 10:16:03.200,-0.036254993408,-0.185284953856,0.0237449643519999,3.2785001216,-31.7304999168,23.0639997184,52.554695,-1.463064,0.7948056234666667,0.0,True
2020-01-08 10:16:03.300,-0.028205003008,-0.1405000704,-0.009814941184,3.4114998784,-31.6770002432,22.7830003968,52.554695,-1.463064,0.8739166193777776,0.0,True
2020-01-08 10:16:03.400,-0.0264727065388563,-0.2292121038790439,0.0589817844481393,3.2878789250075635,-32.02878798300575,23.10242349095855,52.554695,-1.463064,0.8159511959731887,0.0,True
2020-01-08 10:16:03.500,-0.0026039318637576,-0.216580409951887,0.0158666780444587,3.539215735486413,-32.16960781754706,21.99803928851989,52.554695,-1.463064,0.8323801608953654,0.0,True
2020-01-08 10:16:03.600,-0.042146425957866,-0.2861534788825995,0.0605130965895133,3.679292328538293,-32.13919259203711,22.19545357223204,52.554695,-1.463064,0.7793995884465061,0.0,True
2020-01-08 10:16:03.700,-0.0183636503507714,-0.2530424504614462,0.0341393882896883,3.2878789250075635,-32.65787892500756,21.5575759660115,52.554695,-1.463064,0.8091414251117162,0.0,True
2020-01-08 10:16:03.800,-0.0370376218852257,-0.2717544416028145,0.0145009831927022,3.52059407245565,-32.85099008696401,21.36514818860876,52.554695,-1.463064,0.8214906461370872,0.0,True
2020-01-08 10:16:03.900,-0.017969985792,-0.156465003264,-0.040489987584,3.70500032,-32.86250048,18.4319991552,52.554695,-1.463064,0.7983194503111112,0.0,True
2020-01-08 10:16:04.000,-0.0096606442921087,-0.1702848828218939,-0.017469673328696,4.261818659026321,-33.57575785001513,17.320606099002116,52.554695,-1.463064,0.8039646386940159,0.0,True
2020-01-08 10:16:04.100,-0.0655207900012926,-0.2193920766682466,0.0098326673949575,4.901782115980747,-33.950891057990376,17.329306898570707,52.554695,-1.463064,0.7919444444444446,0.0,True
2020-01-08 10:16:04.200,-0.040809968896,-0.213235064576,-0.0275199493119999,4.4070001152,-33.80250048,16.90999936,52.554695,-1.463064,0.7986944732444445,0.0,True
2020-01-08 10:16:04.300,0.000545000192,-0.284434937856,0.034729978368,4.48499968,-34.4114998784,16.1260002816,52.554695,-1.463064,0.8225693831111112,0.0,True
2020-01-08 10:16:04.400,0.002960009216,-0.212520045312,0.003779990528,4.004499763199999,-34.2590000384,16.42499968,52.554695,-1.463064,0.7460277987555555,0.0,True
2020-01-08 10:16:04.500,0.01692500736,-0.261044950272,0.004580057088,3.76500032,-34.206499558400004,16.0090000384,52.554695,-1.463064,0.7698472049777777,0.0,True
2020-01-08 10:16:04.600,0.02384998784,-0.192209988096,0.070814959104,4.1809999616,-33.73250048,15.98499968,52.554695,-1.463064,0.7546111438222223,0.0,True
2020-01-08 10:16:04.700,0.005194989312,-0.176880002048,0.01927501184,4.0729997568,-34.3054997248,15.4384994816,52.554695,-1.463064,0.784680498488889,0.0,True
2020-01-08 10:16:04.800,-0.008279996928,-0.16812495104,0.034114996224,3.9285007616,-33.8919997952,14.90000064,52.554695,-1.463064,0.7185139299555555,0.0,True
2020-01-08 10:16:04.900,-0.007320013312,-0.114965050624,0.026594989312,4.827499520000001,-33.65750016,15.7034998016,52.554695,-1.463064,0.7697638748444444,0.0,True
2020-01-08 10:16:05.000,-0.026140004864,-0.16779993856,0.009969989632,4.1990000384,-33.880500044799994,15.3079994368,52.554695,-1.463064,0.7443610823111112,0.0,True
2020-01-08 10:16:05.100,-0.0332818206501361,-0.0974576165122479,0.0053060935718182,4.1560602659812425,-33.98696986700938,14.370605374962182,52.554695,-1.463064,0.71776940247455,0.0,True
2020-01-08 10:16:05.200,-0.02890989580033,-0.1433277118908273,0.0430564272515974,3.6696039854916345,-34.25,13.379703014465276,52.554695,-1.463064,0.7803712854277892,0.0,True
2020-01-08 10:16:05.300,0.011944988672,-0.057920024832,-0.01762495872,3.8229997568,-34.2304999168,13.6944997632,52.554695,-1.463064,0.7589027470222222,0.0,True
2020-01-08 10:16:05.400,-0.0012138569241531,-0.0839049339470562,0.0306207765149594,3.471782111463709,-34.04574239858871,13.35178211146371,52.554695,-1.463064,0.7259351121497538,0.0,True
2020-01-08 10:16:05.500,0.0158504600251345,-0.0420181946534684,-0.0095040230865902,3.416059842055452,-33.6907065613703,13.252221774005864,52.554695,-1.463064,0.7733501522211705,0.0,True
2020-01-08 10:16:05.600,0.044484960256,-0.0232049658879999,-0.027385014016,3.98499968,-34.092999884799994,13.581999795200002,52.554695,-1.463064,0.782319424711111,0.0,True
2020-01-08 10:16:05.700,-0.007429996288,0.020869994752,-0.042504985088,3.6455003648,-33.9580000768,13.4135004416,52.554695,-1.463064,0.7631528078222222,0.0,True
2020-01-08 10:16:05.800,-0.002980002048,0.014995004672,-0.023060001536,4.1570001152,-34.02249984,14.0660002816,52.554695,-1.463064,0.7994305400888889,0.0,True
2020-01-08 10:16:05.900,-0.008205010688,0.024515014144,-0.025820003072,4.245499724799999,-33.77249984,14.4865001984,52.554695,-1.463064,0.7953889592888889,0.0,True
2020-01-08 10:16:06.000,-0.0174908913190197,0.0364211872186264,-0.0262333200592678,3.9178789250075634,-33.49333309198669,15.090910325068071,52.554695,-1.463064,0.8854376979437554,0.0,True
2020-01-08 10:16:06.100,0.0096198017392803,0.0045693111567912,-0.0083772294192344,4.139504956517992,-33.04079202901673,16.862178130489113,52.554695,-1.463064,0.8748239879192707,0.0,True
2020-01-08 10:16:06.200,0.009070006272,0.03639998464,-0.018954984448,4.1059996416,-32.723500441599995,16.1855002368,52.554695,-1.463064,0.9308611527111111,0.0,True
2020-01-08 10:16:06.300,0.0181050030079999,0.014619994112,-0.00122501248,3.5819997952,-33.3385001216,16.2839990784,52.554695,-1.463064,1.0000278371555555,0.0,True
2020-01-08 10:16:06.400,0.021919999232,0.007145001472,-0.013734982656,3.38500032,-33.4714998784,15.2475008,52.554695,-1.463064,1.0784722204444446,0.0,True
2020-01-08 10:16:06.500,0.022040004864,0.0063249881599999,0.0096750016,3.77249984,-33.188499481600005,16.2919999232,52.554695,-1.463064,1.0669444053333332,0.0,True
2020-01-08 10:16:06.600,0.0234320203606863,-0.0163903167438808,0.0188048799037639,3.523592100292287,-32.590291591275125,16.21767000377786,52.554695,-1.463064,1.021391609059798,0.0,True
2020-01-08 10:16:06.700,-0.0169886668461307,-0.0604433009770233,0.0482463840635936,3.3644330256052952,-33.12865979952812,16.240206093331853,52.554695,-1.463064,1.058648338901997,0.0,True
2020-01-08 10:16:06.800,-0.08797497984,-0.09002503424,-0.0258999641599999,3.5444991232,-33.0954995968,15.1839997184,52.554695,-1.463064,1.0531944284444446,0.0,True
2020-01-08 10:16:06.900,-0.0555299758079999,-0.13932501632,0.009729948928,2.49250048,-32.672500480000004,14.8580002048,52.554695,-1.463064,1.0151527061333332,0.0,True
2020-01-08 10:16:07.000,-0.022364995584,-0.181940089344,-0.043129936128,3.01749952,-33.3565001984,15.0069994752,52.554695,-1.463064,0.9240416839111111,0.0,True
2020-01-08 10:16:07.100,-0.020595017472,-0.301005001728,0.029204946688,2.4070001152,-33.6770002432,13.9634985216,52.554695,-1.463064,0.9414027541333334,0.0,True
2020-01-08 10:16:07.200,-0.0391787711490772,-0.3357092082364714,-0.0315999637980032,2.6084850240096813,-34.06666690801331,11.886363224977307,52.554695,-1.463064,0.9003198302758446,0.0,True
2020-01-08 10:16:07.300,-0.0316128828913317,-0.520542576375494,0.0352356504305111,2.810296985534724,-34.47960398549163,11.032970159505844,52.554695,-1.463064,0.8492794299504419,0.0,True
2020-01-08 10:16:07.400,-0.13520002688,-0.53537498752,0.09400000512,2.44,-34.5954995968,9.7764995584,52.554695,-1.463064,0.8651944405333334,0.0,True
2020-01-08 10:16:07.500,-0.1585249472,-0.494019894272,0.085634935296,2.5435004416,-34.13500032,9.1434998016,52.554695,-1.463064,0.8496666225777777,0.0,True
2020-01-08 10:16:07.600,-0.081634971136,-0.376670098432,0.0142500620799999,3.0819997952,-34.6440003584,8.6729991168,52.554695,-1.463064,0.7824027406222223,0.0,True
2020-01-08 10:16:07.700,-0.043930002688,-0.4930449387519999,0.0954099944959999,2.4919986432,-35.1395000832,7.471499878399999,52.554695,-1.463064,0.7283888689777778,0.0,True
2020-01-08 10:16:07.800,-0.0294393285563936,-0.4353364492047197,0.0895393991502874,0.6809090579981847,-35.25909094200181,7.24484824898699,52.554695,-1.463064,0.6848147528021352,0.0,True
2020-01-08 10:16:07.900,0.0662029668137611,-0.5554544476859866,0.0923089075383176,0.5397029130790736,-35.27990097102636,6.780197956561081,52.554695,-1.463064,0.5838283796316245,0.0,True
2020-01-08 10:16:08.000,0.0289242131883874,-0.4857484680090712,0.0705030531212585,0.1554548910190603,-35.16848502400968,6.0803024159661145,52.554695,-1.463064,0.5389309112186252,0.0,True
2020-01-08 10:16:08.100,-0.0123396014508365,-0.4756049605734403,0.1050871282611505,0.4919800725418281,-35.34970291307907,4.9414850290598205,52.554695,-1.463064,0.42172991264733745,0.0,True
2020-01-08 10:16:08.200,-0.0055500608,-0.51344980096,0.088414945024,-0.5795000832,-34.87,3.97750016,52.554695,-1.463064,0.3250832910222222,0.0,True
2020-01-08 10:16:08.300,-0.084289991424,-0.259495044352,0.020080019968,-0.7365001983999999,-34.8519999232,4.1809999616,52.554695,-1.463064,0.24205544106666668,0.0,True
2020-01-08 10:16:08.400,-0.075495011072,-0.319495004672,0.037539961344,-0.9714998784,-34.8055002368,3.9604992768,52.554695,-1.463064,0.07754161351111111,0.0,True
2020-01-08 10:16:08.500,-0.0759499570824068,-0.291199896094248,0.0013765162961364,-0.9202944498265728,-35.08323518339114,2.8897055501734275,52.554695,-1.463064,0.026797445413227528,0.0,True
2020-01-08 10:16:08.600,0.0034697149609923,-0.1239412312299111,0.0764394661239814,-1.63353494397741,-34.91201996798709,2.3563630439673253,52.554695,-1.463064,0.16350156343782207,0.0,True
2020-01-08 10:16:08.700,-0.0012144164759725,-0.3188716035547475,-0.0011143498636406,-2.1828566502617472,-35.14428607253691,3.0428572772013416,52.554695,-1.463064,0.3329362977127154,0.0,True
2020-01-08 10:16:08.800,0.0776471441474948,-0.1977000154566224,0.0556981225033932,-2.513207490665649,-35.00283034907815,2.864528210751047,52.554695,-1.463064,0.5229035989779308,0.0,True
2020-01-08 10:16:08.900,-0.0312682921308347,-0.2680368219372989,0.0837261305760804,-2.414212517583146,-35.63841969959094,2.393683648886805,52.554695,-1.463064,0.7205267331188324,0.0,True
2020-01-08 10:16:09.000,0.02999987584,-0.259390023424,-0.023209902336,-3.81,-34.7455002368,1.92499968,52.554695,-1.463064,1.0520557219555555,0.0,True
2020-01-08 10:16:09.100,-0.121069940992,-0.2730399255039999,0.090884933376,-3.73499968,-35.1065001984,1.5945004032,52.554695,-1.463064,1.3235974378666666,0.0,True
2020-01-08 10:16:09.200,-0.038394981632,-0.199480108288,-0.001185015296,-3.5170008832,-35.3519999232,1.9319991552,52.554695,-1.463064,1.6495835022222223,0.0,True
2020-01-08 10:16:09.300,-0.015140004864,-0.329364940544,-0.0207499968,-4.7170001152,-35.2965001984,0.7919999232,52.554695,-1.463064,1.9043473521777778,0.0,True
2020-01-08 10:16:09.400,-0.025485016576,-0.253265012224,-0.014894993152,-4.8234998016,-35.59750016,0.7935004416,52.554695,-1.463064,2.1195696263111112,0.0,True
2020-01-08 10:16:09.500,-0.043794984192,-0.275260024576,0.00402504192,-4.6815005184,-35.84750016,1.34249984,52.554695,-1.463064,2.398902939022222,0.0,True
2020-01-08 10:16:09.600,-0.042810085376,-0.287964914944,0.06285001344,-5.3324998400000005,-35.98499968,0.9604992768,52.554695,-1.463064,2.646514031644444,0.0,True
2020-01-08 10:16:09.700,-0.1601394082007866,-0.1667423943483511,0.0640938792766841,-5.215454891019061,-35.51303013299062,0.0378789250075636,52.554695,-1.463064,2.868686986617616,0.0,True
2020-01-08 10:16:09.800,-0.1608455310229107,-0.1390980315868715,-0.0203613807280036,-5.769009913035984,-35.28960398549163,0.2309900869640155,52.554695,-1.463064,3.0735973739846942,350.2428105165768,True
2020-01-08 10:16:09.900,-0.042584979456,-0.228029957888,0.0182499712,-5.8805000448,-35.4054995968,0.0264995583999999,52.55470985006336,-1.46306820001792,3.2246806904888885,350.2428290993353,True
2020-01-08 10:16:10.000,0.013380122368,-0.162184957696,-0.015859982336,-5.854499635200001,-35.0020005632,-0.4939997184,52.554794,-1.463092,3.4304723356444446,0.0,True
2020-01-08 10:16:10.100,0.165534955776,-0.090714934784,0.0018849756159999,-5.4555003648,-35.7680000768,-0.1395000831999999,52.554794,-1.463092,3.611111239111111,0.0,True
2020-01-08 10:16:10.200,0.094469947392,-0.011420031232,-0.0205099573759999,-5.902499840000001,-35.7394994432,-0.0804992768,52.554794,-1.463092,3.806902887822222,0.0,True
2020-01-08 10:16:10.300,0.027930014208,-0.044079962368,0.034989995264,-5.7740003584,-35.11250048,0.8229997568,52.554794,-1.463092,3.983180684088889,0.0,True
2020-01-08 10:16:10.400,0.011444849152,0.016355044608,0.015334942976,-6.1929997568,-35.7409999616,0.3964995584,52.554794,-1.463092,4.192597387377778,0.0,True
2020-01-08 10:16:10.500,-0.178789956864,0.071159981056,-0.05357497088,-5.8144997632,-35.69,-0.03999936,52.554794,-1.463092,4.428319514311111,0.0,True
2020-01-08 10:16:10.600,-0.070954362469907,0.0737122215355335,-0.0497637625769615,-5.433333091986688,-35.83090960102813,0.8675759660114968,52.554794,-1.463092,4.53853541661459,0.0,True
2020-01-08 10:16:10.700,0.1962900889917395,0.2132643465279027,-0.1933247197305154,-5.239010014422187,-36.610495043482,1.1804950434820076,52.554794,-1.463092,4.652084718592738,0.0,True
2020-01-08 10:16:10.800,0.091629911808,0.140295043072,0.06402492672,-6.152499840000001,-36.4669996032,1.2140003584,52.554794,-1.463092,4.740402792533333,0.0,True
2020-01-08 10:16:10.900,-0.037440050944,0.158169832192,-0.03299999872,-5.8364995584,-36.024000358399995,1.46499904,52.554794,-1.463092,4.7907501312,0.0,True
2020-01-08 10:16:11.000,-0.0979749696,-0.0108947704319999,-0.039985037056,-5.2214998784,-36.4804999168,0.19,52.554794,-1.463092,4.986166756977778,0.0,True
2020-01-08 10:16:11.100,-0.051944975872,0.28394995712,-0.078804955648,-5.1170002432,-36.3054997248,0.2935004416,52.554794,-1.463092,5.1260278627555556,0.0,True
2020-01-08 10:16:11.200,-0.028585037056,0.247280086528,-0.044560105216,-5.3079994368,-35.97750016,0.9730003968,52.554794,-1.463092,5.2400972273777775,0.0,True
2020-01-08 10:16:11.300,-0.071409972736,0.361989999104,-0.165864921344,-4.52249984,-36.1794999552,1.3124992,52.554794,-1.463092,5.273486224355556,0.0,True
2020-01-08 10:16:11.400,-0.0334727210196551,0.3360877893250655,-0.0562636177689743,-4.281212016994251,-35.97909039897186,0.4393946250378181,52.554794,-1.463092,5.442407474448141,0.0,True
2020-01-08 10:16:11.500,-0.0253841594196653,0.2040207960844648,-0.024933661740142,-4.012277159462754,-35.29772284053724,1.390693000043089,52.554794,-1.463092,5.555440049915807,0.0,True
2020-01-08 10:16:11.600,-0.0163150882165086,0.2347363532694281,-0.0066181648690651,-3.429393900997882,-35.842727173994554,0.7539391909888059,52.554794,-1.463092,5.629074161227029,0.0,True
2020-01-08 10:16:11.700,0.084688,0.22622,-0.006,-3.3204,-35.73,0.5104,52.554794,-1.463092,5.786466666666667,0.0,True
2020-01-08 10:16:11.800,0.0802584027617601,0.2595059366691084,-0.1247168217453127,-2.9316830870071047,-35.90990097102635,0.8499009710263579,52.554794,-1.463092,5.912304735101791,0.0,True
2020-01-08 10:16:11.900,-0.025919985152,0.211854937088,-0.0350999731199999,-2.2785001216,-35.8430003968,0.6809999616,52.554794,-1.463092,5.9716528654222225,0.0,True
2020-01-08 10:16:12.000,-6.49738239999996e-05,0.143810066176,0.000690000384,-2.47750016,-36.2304994048,0.66750016,52.554794,-1.463092,6.108013974044444,0.0,True
2020-01-08 10:16:12.100,0.04692505216,0.213864923904,0.006405022208,-2.6239997184,-35.504500275199995,0.95500032,52.554794,-1.463092,6.229652814222222,0.0,True
2020-01-08 10:16:12.200,0.055344740352,0.098159937536,0.051185065216,-2.1929997568,-35.936000281599995,1.3980000767999998,52.554794,-1.463092,6.277430552888889,0.0,True
2020-01-08 10:16:12.300,-0.262694885632,0.075770258432,0.120009924096,-1.9270002432,-36.1509993216,1.6695007232,52.554794,-1.463092,6.288013949155555,0.0,True
2020-01-08 10:16:12.400,-0.0897999104,0.307519524352,0.050415133184,-2.25,-35.5035010816,2.6194999552,52.554794,-1.463092,6.364430540088889,0.0,True
2020-01-08 10:16:12.500,0.029455001088,-0.278194803712,0.211144931072,-2.1284994816,-36.9204999168,2.5885001216,52.554794,-1.463092,6.354097265777778,0.0,True
2020-01-08 10:16:12.600,0.04147504512,-0.070000224,0.137645076992,-1.5705005568,-36.77249984,2.8070002432,52.554794,-1.463092,6.394402702933333,0.0,True
2020-01-08 10:16:12.700,0.1125818586622327,-0.3310453225727207,0.2163393086452954,-2.291818115996369,-36.52212107499244,3.1481818840036304,52.554794,-1.463092,6.285614444137014,0.0,True
2020-01-08 10:16:12.800,0.1223366001657664,-0.1146227644975933,0.0823089095660417,-2.19,-36.14207910151547,3.310198057947284,52.554794,-1.463092,6.232571506843991,0.0,True
2020-01-08 10:16:12.900,-0.149619962112,-0.05345001728,0.076570022912,-2.0489993984,-35.2785001216,3.5819997952,52.554794,-1.463092,6.218749952,0.0,True
2020-01-08 10:16:13.000,-0.079964917504,-0.0698449720319999,0.101359975936,-1.2965001984,-35.542000435199995,3.2634998016,52.554794,-1.463092,6.164291706311111,0.0,True
2020-01-08 10:16:13.100,0.026194985472,-0.043920047872,0.0694,-1.4669996032,-36.1019999232,2.9819999232,52.554794,-1.463092,6.212902760533333,0.0,True
2020-01-08 10:16:13.200,0.007605003008,-0.08447490176,0.05034991872,-1.01500032,-36.0090000384,2.95500032,52.554794,-1.463092,6.189416664177777,0.0,True
2020-01-08 10:16:13.300,0.008734987776,0.0291099279359999,-0.0428999372799999,-1.5615005184,-35.956499558400004,3.3604999168,52.554794,-1.463092,6.1829444309333335,0.0,True
2020-01-08 10:16:13.400,-0.0096450091519999,-0.043079899648,0.024589932544,-2.17499968,-35.40750016,3.3340003584,52.554794,-1.463092,6.156583297422221,0.0,True
2020-01-08 10:16:13.500,-0.0182899850239999,0.077944947712,-0.051964944384,-1.7409999616,-35.7520005632,3.7919999232,52.554794,-1.463092,6.112513904355556,0.0,True
2020-01-08 10:16:13.600,0.004765013504,0.016660034816,0.012764961024,-1.6704999168,-36.2839990784,3.7080000768,52.554794,-1.463092,6.124180517688889,0.0,True
2020-01-08 10:16:13.700,0.018364981504,0.057679977728,-0.038759998976,-1.6635004416,-35.06,3.8760002816,52.554794,-1.463092,6.075263894755555,0.0,True
2020-01-08 10:16:13.800,-0.009905015808,0.024619985152,-0.040685014016,-2.1179994368,-35.2190006784,4.0714992384,52.554794,-1.463092,6.085763900444444,0.0,True
2020-01-08 10:16:13.900,-0.032340006144,0.0021699883519999,-0.0557749849599999,-1.44500032,-36.0554997248,3.0705000448,52.554794,-1.463092,6.086986050844445,0.0,True
2020-01-08 10:16:14.000,-0.035639979264,-0.0308950750719999,-0.030309976576,-1.9270002432,-35.736500198399995,3.0444996352,52.554794,-1.463092,6.015069479111111,0.0,True
2020-01-08 10:16:14.100,-0.0067649943039999,-0.1261299809279999,0.00432501504,-2.3715005184,-35.92499968,2.71000064,52.554794,-1.463092,6.043236034844445,0.0,True
2020-01-08 10:16:14.200,-0.000985007616,-0.118905077248,0.029655022848,-3.0314998784,-35.5930003968,3.52249984,52.554794,-1.463092,5.927402715733334,0.0,True
2020-01-08 10:16:14.300,-0.003329966848,-0.21969999232,0.056219983872,-2.9645004032,-36.0269996032,3.34750016,52.554794,-1.463092,5.8179998848,0.0,True
2020-01-08 10:16:14.400,0.032644965632,-0.2280100789759999,0.0457950469119999,-3.5555002368,-35.53750016,3.48499968,52.554794,-1.463092,5.620166475377778,0.0,True
2020-01-08 10:16:14.500,-0.013615002624,-0.330304988928,0.102069974272,-3.75749952,-35.7304999168,3.02249984,52.554794,-1.463092,5.315694229333333,0.0,True
2020-01-08 10:16:14.600,-0.010754972928,-0.32925005824,0.076045034752,-3.2610006016,-35.723500441599995,2.73499968,52.554794,-1.463092,4.982166462577777,0.0,True
2020-01-08 10:16:14.700,0.021104982528,-0.41830004992,0.106509933056,-4.0885001216,-36.225999641600005,2.2169996032,52.554794,-1.463092,4.670277603555555,0.0,True
2020-01-08 10:16:14.800,-0.011910041856,-0.479754979328,0.023420024832,-4.4465008384,-35.9930010368,1.69,52.554794,-1.463092,4.396305373866666,0.0,True
2020-01-08 10:16:14.900,-0.052784937216,-0.494630180608,0.063360029696,-5.672500479999999,-37.3429998848,1.7080000768,52.554794,-1.463092,4.108208133688889,0.0,True
2020-01-08 10:16:15.000,-0.016545201152,-0.739765022464,0.140540161024,-6.2544997632,-37.11499968,1.7259996416,52.554794,-1.463092,3.814680434488889,0.0,True
2020-01-08 10:16:15.100,-0.25617488256,-0.757404947968,0.33197490432,-6.16500096,-36.65249984,1.13749952,52.554794,-1.463092,3.6009719964444447,0.0,True
2020-01-08 10:16:15.200,-0.0995999974399999,-0.693280021248,0.174239869184,-7.4670001152,-36.32749952,0.3784994816,52.554794,-1.463092,3.2566942549333335,0.0,True
2020-01-08 10:16:15.300,-0.097745006592,-0.715694975232,0.033605141248,-7.7610006016,-35.6794999552,-0.2634998015999999,52.554794,-1.463092,2.974708204088889,0.0,True
2020-01-08 10:16:15.400,-0.072419854592,-0.66644993024,0.209244948992,-8.7190006784,-35.8270008832,0.1035004415999999,52.554794,-1.463092,2.7713887537777775,0.0,True
2020-01-08 10:16:15.500,0.1105749568,-0.595145091072,0.125839933184,-9.668000204799998,-36.9054995968,0.5774995199999999,52.554794,-1.463092,2.560152642133333,0.0,True
2020-01-08 10:16:15.600,0.032394911232,-0.679559844096,0.022159936256,-9.97750016,-36.2394994432,-0.09750016,52.554794,-1.463092,2.354791559111111,0.0,True
2020-01-08 10:16:15.700,-0.0772575459183541,-0.4996061587354125,-0.0240756184723274,-10.379394625037818,-35.55606080901119,-0.2812120169942516,52.554794,-1.463092,2.1943938758576063,0.0,True
2020-01-08 10:16:15.800,-0.0348069330420169,-0.6135227482758009,0.1414524437876871,-11.58732682602888,-35.999901072412555,-0.1009900869640155,52.554794,-1.463092,2.1014796513666436,0.0,True
2020-01-08 10:16:15.900,-0.050329982208,-0.4158850152959999,-0.096784891136,-12.5485007616,-36.6419997952,-0.07500032,52.554794,-1.463092,2.125208312888889,0.0,True
2020-01-08 10:16:16.000,-0.0304128800705646,-0.437640597467379,0.0416960251639917,-13.662475489947584,-36.38930697636693,-0.5653466892419373,52.554794,-1.463092,2.0943426754849908,0.0,True
2020-01-08 10:16:16.100,-0.0501020317130312,-0.4408091275813383,0.0120312747273206,-14.276868493320714,-36.37555645198827,-0.8862630133585714,52.554794,-1.463092,2.078437110504295,0.0,True
2020-01-08 10:16:16.200,-0.0240199301119999,-0.4234750579199999,0.03629996544,-14.6080007168,-35.7145004032,-0.4939997184,52.554794,-1.463092,2.099861063111111,0.0,True
2020-01-08 10:16:16.300,0.06857499904,-0.4922699653119999,0.008385076736,-15.5314998784,-36.2680000768,-0.2610006016,52.554794,-1.463092,2.047361159111111,0.0,True
2020-01-08 10:16:16.400,0.03144984704,-0.4386699678719999,0.1164950264319999,-15.5770008832,-36.3054997248,-0.8919992832000001,52.554794,-1.463092,2.098361056711111,0.0,True
2020-01-08 10:16:16.500,-0.130359823616,-0.426795131392,0.162295045632,-16.8160002816,-35.97750016,0.09750016,52.554794,-1.463092,2.042611181511111,0.0,True
2020-01-08 10:16:16.600,0.093654956288,-0.5945049710079999,0.183269830912,-17.2365001984,-36.1239997184,0.3670002431999999,52.554794,-1.463092,2.1482361628444444,0.0,True
2020-01-08 10:16:16.700,0.028219968512,-0.522654857728,-0.035464975104,-17.4909999616,-35.7034998016,0.6809999616,52.554794,-1.463092,2.248902914133333,0.0,True
2020-01-08 10:16:16.800,-0.0052299642879999,-0.344770047232,0.0037650263039999,-17.579500595200003,-35.5330003968,0.6194999552,52.554794,-1.463092,2.4654168177777778,0.0,True
2020-01-08 10:16:16.900,0.0127453479141185,-0.362863474771087,0.0218363025866326,-18.35181811599637,-36.06,0.4660602659812422,52.554794,-1.463092,2.7132072412038486,0.0,True
2020-01-08 10:16:17.000,-0.1395900910194636,-0.1318782298475911,-0.0528613736309694,-18.32920797098327,-35.99029698553473,0.028712927501261,52.554794,-1.463092,3.0265374351656353,0.0,True
2020-01-08 10:16:17.100,-0.0694514697197431,-0.2143880290775629,0.0316682171996623,-18.926733539316302,-35.56504923567476,0.5,52.554794,-1.463092,3.324447363522202,0.0,True
2020-01-08 10:16:17.200,-0.0565940341912724,-0.1343481642286995,-0.0649218684880166,-19.930199935488165,-35.26680011059172,0.5350002303994101,52.554794,-1.463092,3.5684169725858834,0.0,True
2020-01-08 10:16:17.300,-0.0646577475059345,-0.2946140908879339,0.0574323258808744,-19.95909026732658,-35.36151521263556,0.8744435480117294,52.554794,-1.463092,3.861116670717853,0.0,True
2020-01-08 10:16:17.400,0.065039935744,-0.329204965888,0.0558750028799999,-20.5090000384,-35.3940003584,1.4889993983999998,52.554794,-1.463092,3.9310834446222223,0.0,True
2020-01-08 10:16:17.500,-0.009934955776,-0.28637501056,0.050864962304,-20.6170002432,-35.83249984,0.8115005183999999,52.554794,-1.463092,4.111139026488889,0.0,True
2020-01-08 10:16:17.600,0.049595003392,-0.293394970112,0.006440024064,-21.0240003584,-35.6109999616,1.5660002816,52.554794,-1.463092,4.308305617066667,0.0,True
2020-01-08 10:16:17.700,0.038079931648,-0.238234934016,0.033644979712,-21.3124992,-35.5314998784,1.90249984,52.554794,-1.463092,4.424791815111111,0.0,True
2020-01-08 10:16:17.800,-0.0755750976,-0.129134908416,0.017890047744,-20.47500096,-35.342999884799994,1.6990000384,52.554794,-1.463092,4.646861217422222,0.0,True
2020-01-08 10:16:17.900,-0.1343696977919999,-0.0720302753279999,0.095385060096,-21.8430003968,-35.1704999168,1.8910006016,52.554794,-1.463092,4.812347325866667,0.0,True
2020-01-08 10:16:18.000,0.245414907904,-0.4373399984639999,0.161684942336,-22.3805000448,-35.1440003584,2.69,52.554794,-1.463092,4.976833447822222,0.0,True
2020-01-08 10:16:18.100,0.1084749376,-0.4236749504,0.085310000896,-22.3829997568,-35.58249984,2.7740003584,52.554794,-1.463092,5.130388895288888,0.0,True
2020-01-08 10:16:18.200,0.023604991488,-0.371960060416,0.099490055424,-22.1920005632,-35.380500044799994,3.28750016,52.554794,-1.463092,5.146388920888889,0.0,True
2020-01-08 10:16:18.300,0.007919981312,-0.464455052288,0.178320022272,-23.0045002752,-35.3829997568,3.5840003584,52.554794,-1.463092,5.176763837155555,0.0,True
2020-01-08 10:16:18.400,-0.0218050209279999,-0.5483900618240001,0.218865046784,-23.3895000832,-35.0690000384,4.06,52.554794,-1.463092,5.110013897244444,0.0,True
2020-01-08 10:16:18.500,-0.063085057536,-0.5406946168319999,0.228394775552,-23.5,-35.12,3.8829992448,52.554794,-1.463092,5.1236527886222225,0.0,True
2020-01-08 10:16:18.600,-0.135794984192,-0.080385207296,-0.044259891456,-23.6215005184,-35.08249984,2.9820004352,52.554794,-1.463092,5.131430527288889,0.0,True
2020-01-08 10:16:18.700,-0.094954915328,-0.281809684736,0.057389818624,-24.23499968,-34.936000281599995,3.7295007232,52.554794,-1.463092,5.091222210844444,0.0,True
2020-01-08 10:16:18.800,0.008634962176,0.10104984704,-0.1514148631039999,-23.81,-35.27249984,4.69,52.554794,-1.463092,5.078027785955556,342.0517660123363,True
2020-01-08 10:16:18.900,-0.0261049338879999,-0.07404988032,0.0037898864639999,-23.9045004032,-35.1065001984,4.61499968,52.55484665022464,-1.4631200501196802,5.095055581866666,342.0518851594736,True
2020-01-08 10:16:19.000,0.05502497152,0.071729943808,-0.131609934336,-24.4865001984,-35.25749952,4.1990000384,52.555145,-1.463279,5.137500032,0.0,True
2020-01-08 10:16:19.100,0.021160016896,0.011635062016,-0.059985066496,-24.82500032,-34.592999884799994,4.3715005184,52.555145,-1.463279,5.1771666545777775,0.0,True
2020-01-08 10:16:19.200,0.035154963968,0.088374976,-0.1460349903359999,-25.1659996416,-34.4580000768,5.1260002816,52.555145,-1.463279,5.173236162844444,0.0,True
2020-01-08 10:16:19.300,-0.005814970624,0.043419944192,-0.123179957248,-24.5954995968,-34.6065001984,5.46249984,52.555145,-1.463279,5.236402754133334,0.0,True
2020-01-08 10:16:19.400,0.0373212270408229,-0.0158969161070441,-0.0716727463610528,-24.21151570003025,-34.804848248986985,5.2318181159963695,52.555145,-1.463279,5.208956243278568,0.0,True
2020-01-08 10:16:19.500,0.0508316771052211,0.0458989965300572,-0.0881623679761539,-25.09960398549164,-34.34970291307907,5.258316912992895,52.555145,-1.463279,5.230143013687982,0.0,True
2020-01-08 10:16:19.600,-0.0001950008319999,-0.0507199339519999,-0.026535032576,-25.2544997632,-33.973500441599995,6.0615005184,52.555145,-1.463279,5.2202083128888885,0.0,True
2020-01-08 10:16:19.700,-0.0023454583302087,0.0018483575929809,-0.0541029734768656,-24.882424033988503,-34.56,6.712121074992436,52.555145,-1.463279,5.197432675778652,0.0,True
2020-01-08 10:16:19.800,-0.0144574297076782,-0.1759584037756222,0.014489096674279,-24.66930699995691,-34.620198057947285,6.390693000043089,52.555145,-1.463279,5.203902628831589,0.0,True
2020-01-08 10:16:19.900,-0.043154980608,-0.094555084288,-0.0736249382399999,-25.2304999168,-34.8829997568,5.8670002432,52.555145,-1.463279,5.1010138588444445,0.0,True
2020-01-08 10:16:20.000,-0.011909976576,-0.193689945344,0.007889997824,-25.12,-34.5314998784,6.2740003584,52.555145,-1.463279,5.067111136711111,0.0,True
2020-01-08 10:16:20.100,0.017639993344,-0.123740011264,0.011330027008,-25.1680002048,-34.37,6.82500032,52.555145,-1.463279,5.076027670755556,0.0,True
2020-01-08 10:16:20.200,0.0145600245759999,-0.136959992576,0.041844977152,-25.4580000768,-34.455500364799995,7.3070002432,52.555145,-1.463279,4.9365972337777775,0.0,True
2020-01-08 10:16:20.300,0.04014996992,-0.1276850024959999,0.0128950059519999,-25.52249984,-34.9204999168,7.5819997952,52.555145,-1.463279,4.961861153422222,0.0,True
2020-01-08 10:16:20.400,-0.001480007168,-0.131360001536,0.0215650032639999,-25.3940003584,-34.73499968,7.347500159999999,52.555145,-1.463279,5.013680536888889,0.0,True
2020-01-08 10:16:20.500,-0.0141350133759999,-0.1347500057599999,0.02319998848,-25.90750016,-34.188499481600005,7.6635004416,52.555145,-1.463279,4.975722166044445,0.0,True
2020-01-08 10:16:20.600,-0.0312399971839999,-0.15132503808,0.01322502272,-26.1680002048,-33.5285001216,8.4660009216,52.555145,-1.463279,4.909194478933333,0.0,True
2020-01-08 10:16:20.700,-0.0253333254895673,-0.1976121056891438,0.0366878544886597,-26.364242149984875,-33.73696986700938,9.756666908013312,52.555145,-1.463279,4.938501623774484,0.0,True
2020-01-08 10:16:20.800,-0.0129623760870501,-0.1919762492681183,-0.0008683168116066,-25.94,-33.92079202901673,10.02069300004309,52.555145,-1.463279,4.834361928748593,0.0,True
2020-01-08 10:16:20.900,-0.01717502336,-0.278229951488,-0.001360002816,-25.97750016,-33.6215005184,9.5435004416,52.555145,-1.463279,4.7680694279111115,0.0,True
2020-01-08 10:16:21.000,-0.0534575947910498,-0.2259212560024203,-0.0019181702993646,-26.19,-34.470606642032074,10.157272826005446,52.555145,-1.463279,4.734116118192048,0.0,True
2020-01-08 10:16:21.100,-0.0618465213126471,-0.3032891149237956,0.0180544568107449,-26.22960398549164,-35.13237608705019,10.360693101429291,52.555145,-1.463279,4.6569554392148875,0.0,True
2020-01-08 10:16:21.200,0.043939974144,-0.367095057152,0.047830078208,-26.617000755200003,-33.83249984,10.8355008768,52.555145,-1.463279,4.6046388920888885,0.0,True
2020-01-08 10:16:21.300,0.0076454474696097,-0.4564394425926836,0.1478515012192315,-27.544242149984875,-33.66848502400968,12.122727717024508,52.555145,-1.463279,4.592390512663372,0.0,True
2020-01-08 10:16:21.400,-0.0087178252152555,-0.5320801982607196,0.1198207879735686,-27.15009902897364,-33.998613898527616,12.928811956474904,52.555145,-1.463279,4.4773377194131205,0.0,True
2020-01-08 10:16:21.500,-0.0476100431359999,-0.53792501632,0.068404927488,-27.3385001216,-34.3385001216,13.67250048,52.555145,-1.463279,4.370736169955555,0.0,True
2020-01-08 10:16:21.600,-0.098554972928,-0.560665004544,-0.0001498816,-27.42499968,-34.4159996416,14.2634998016,52.555145,-1.463279,4.4275971313777776,0.0,True
2020-01-08 10:16:21.700,-0.053569961472,-0.565619995392,0.147364958464,-26.92499968,-33.90249984,14.1320005632,52.555145,-1.463279,4.294486057955556,0.0,True
2020-01-08 10:16:21.800,0.0030300231679999,-0.549584957696,0.081654955008,-26.7055008768,-33.736500198399995,15.1320010752,52.555145,-1.463279,4.223305553066667,0.0,True
2020-01-08 10:16:21.900,0.0127249100799999,-0.497510017536,0.0423600872959999,-27.79499968,-33.9159996416,16.7010006016,52.555145,-1.463279,4.214583310222222,0.0,True
2020-01-08 10:16:22.000,-0.096364955904,-0.488114860544,0.130744882432,-27.37,-33.4204999168,17.641000601600002,52.555145,-1.463279,4.149555409066667,0.0,True
2020-01-08 10:16:22.100,-0.0424515319909288,-0.3593092951212637,0.0011152475052945,-27.37,-33.30090905799819,18.562727717024508,52.555145,-1.463279,3.9336194512179525,0.0,True
2020-01-08 10:16:22.200,-0.0638584129003804,-0.6242375914693649,0.1106138366820351,-27.430198057947287,-33.32920797098327,19.40841594196654,52.555145,-1.463279,3.781105589787481,0.0,True
2020-01-08 10:16:22.300,-0.047885037056,-0.393205169408,-0.056029827328,-27.6464995584,-33.6839997184,20.3445004032,52.555145,-1.463279,3.5666109390222225,0.0,True
2020-01-08 10:16:22.400,-0.0930848339491982,-0.5868514016637403,0.1481938485049868,-26.975151207983057,-33.25393919098881,20.93606080901119,52.555145,-1.463279,3.3146968851342247,0.0,True
2020-01-08 10:16:22.500,-0.0736099028973642,-0.4450742788272658,0.038570316654458,-26.53009902897364,-32.998613898527616,21.47811895643181,52.555145,-1.463279,3.166155104274301,0.0,True
2020-01-08 10:16:22.600,-0.090236365940127,-0.6028635580356797,0.1923120821578458,-26.632424033988503,-33.25393919098881,22.812727717024508,52.555145,-1.463279,3.0610437315811563,0.0,True
2020-01-08 10:16:22.700,-0.0963663382598579,-0.4851851507232638,0.126957422610644,-26.23079202901673,-32.90990097102635,23.56970301446528,52.555145,-1.463279,2.994147411032903,0.0,True
2020-01-08 10:16:22.800,-0.111335005696,-0.5045100034560001,0.102170006272,-25.8940003584,-32.7034998016,24.070500556800003,52.555145,-1.463279,2.9535971818666664,0.0,True
2020-01-08 10:16:22.900,-0.0915059614345299,-0.500206028408224,0.1043030078687625,-26.218484299969745,-32.41121201699425,24.867575966011497,52.555145,-1.463279,2.887710393219768,0.0,True
2020-01-08 10:16:23.000,0.0585415820303094,-0.4735604107155078,0.0870891199931057,-25.40009902897364,-32.22940592754435,25.29930699995691,52.555145,-1.463279,2.8146204593414565,0.0,True
2020-01-08 10:16:23.100,0.0118817138542455,-0.5542362102715408,0.16572722105715,-25.541818115996367,-32.101818115996366,25.92696986700938,52.555145,-1.463279,2.7929966368057655,0.0,True
2020-01-08 10:16:23.200,-0.1435910853646481,-0.3418079365119598,0.0843584149281045,-25.34019795656108,-32.08871292750126,26.23910894200963,52.555145,-1.463279,2.797656764895816,0.0,True
2020-01-08 10:16:23.300,-0.10462496768,-0.435379836928,0.06049993088,-24.6884994816,-32.5885001216,26.5465001984,52.555145,-1.463279,2.810902862222222,0.0,True
2020-01-08 10:16:23.400,-0.0740636811224687,-0.2191636376800726,-0.0169211600671288,-24.11363677502269,-32.67424214998487,26.92363677502269,52.555145,-1.463279,2.9398485456422425,0.0,True
2020-01-08 10:16:23.500,-0.0979613574091769,-0.2321940663724777,0.0529069239172587,-24.621683087007103,-32.299108942009624,27.59960398549164,52.555145,-1.463279,3.0641639355758277,0.0,True
2020-01-08 10:16:23.600,0.122514913024,-0.265369892352,-0.011670033152,-24.0240003584,-32.456499558400004,27.8205000448,52.555145,-1.463279,3.2694168561777777,0.0,True
2020-01-08 10:16:23.700,-0.010715075584,-0.172470213632,-0.022129856768,-24.38749952,-31.83249984,27.9820004352,52.555145,-1.463279,3.5481112263111103,0.0,True
2020-01-08 10:16:23.800,-0.09114991488,-0.410314804224,0.1421348892159999,-23.7214998784,-31.6485001216,28.6080002048,52.555145,-1.463279,3.726277885155556,0.0,True
2020-01-08 10:16:23.900,-0.004080110848,-0.1783051194879999,0.0142450821119999,-23.4384994816,-31.7544997632,29.0105005568,52.555145,-1.463279,3.8953056682666665,0.0,True
2020-01-08 10:16:24.000,-0.112404834048,-0.286839785984,0.093464872704,-22.7590000384,-31.4670001152,29.7214998784,52.555145,-1.463279,4.083416830577778,0.0,True
2020-01-08 10:16:24.100,0.079229877248,-0.034160134656,-0.047369879552,-22.84750016,-31.65750016,29.5329998848,52.555145,-1.463279,4.329736233244445,0.0,True
2020-01-08 10:16:24.200,-0.043464827904,-0.192809913856,0.070884822016,-23.0509999616,-31.98250048,29.4640003584,52.555145,-1.463279,4.523736246755555,0.0,True
2020-01-08 10:16:24.300,0.1786605827487141,-0.1161728640175424,-0.1025300750674262,-22.97121201699425,-32.468484299969745,29.89303013299062,52.555145,-1.463279,4.725858665393276,0.0,True
2020-01-08 10:16:24.400,0.0991940319011687,-0.2026781386000086,0.1773712410431626,-22.859108942009627,-31.63108911593766,29.679108942009627,52.555145,-1.463279,4.8937294013510835,0.0,True
2020-01-08 10:16:24.500,-0.1202999526399999,0.448509944576,-0.1978399523839999,-22.9984994816,-31.7170001152,29.9490000384,52.555145,-1.463279,5.158194556444445,0.0,True
2020-01-08 10:16:24.600,-0.03984992512,0.346219877632,-0.1269649674239999,-22.4315005184,-31.8895000832,30.07500032,52.555145,-1.463279,5.328986205155556,0.0,True
2020-01-08 10:16:24.700,0.0659485078312676,0.2465032576625405,-0.1233213555579115,-23.15787892500757,-32.01818188400363,30.5,52.555145,-1.463279,5.494798127897058,0.0,True
2020-01-08 10:16:24.800,0.0859593960930826,0.4676652638195731,-0.2743247075641711,-23.241683087007104,-32.051881144954386,30.381188043525096,52.555145,-1.463279,5.7508195990232,0.0,True
2020-01-08 10:16:24.900,0.012280037888,-0.157939710464,0.063454834688,-22.6065001984,-31.65249984,29.90000064,52.555145,-1.463279,5.915638981688889,0.0,True
2020-01-08 10:16:25.000,0.034714881024,0.1350246092799999,-0.092214727424,-22.8805000448,-31.4490000384,30.6839997184,52.555145,-1.463279,6.062013987555555,0.0,True
2020-01-08 10:16:25.100,-0.111134948096,-0.336289796864,0.245889897984,-22.9294999552,-31.61250048,30.34750016,52.555145,-1.463279,6.210138961777778,0.0,True
2020-01-08 10:16:25.200,-0.0093665478034438,-0.1219244430710671,0.1311121961941357,-22.918485024009684,-32.18333309198669,30.52212107499244,52.555145,-1.463279,6.343602826312875,0.0,True
2020-01-08 10:16:25.300,0.1712524731896859,-0.4243792029016731,0.2282643445001786,-23.23910894200963,-31.819504956517992,30.31,52.555145,-1.463279,6.565390549510402,0.0,True
2020-01-08 10:16:25.400,0.123894871552,-0.3377948101119999,0.126069990912,-23.3679994368,-31.8234998016,30.31,52.555145,-1.463279,6.678847332266667,0.0,True
2020-01-08 10:16:25.500,-0.0118513889930414,-0.1371607927202956,0.1094393774290893,-22.6775759660115,-31.53121201699425,30.32969704100393,52.555145,-1.463279,6.842718919364649,0.0,True
2020-01-08 10:16:25.600,0.092324,-0.323548,0.051084,-22.9504,-31.33,30.4304,52.555145,-1.463279,6.94821111111111,0.0,True
2020-01-08 10:16:25.700,-0.3708207829042584,0.1434791633610539,-0.0725504642220763,-22.71851486955397,-31.210297086920928,30.487722840537245,52.555145,-1.463279,7.009273945238495,0.0,True
2020-01-08 10:16:25.800,-0.2659248806399999,-0.170279744768,0.135169783552,-22.8054997248,-31.6329997568,31.0509999616,52.555145,-1.463279,7.180055645866666,0.0,True
2020-01-08 10:16:25.900,-0.1195050516479999,0.0996847055359999,-0.10444979584,-22.44,-31.38500032,31.0570002432,52.555145,-1.463279,7.311083380622222,0.0,True
2020-01-08 10:16:26.000,-0.1379028485799766,-0.2426725508702701,0.1120028322890781,-22.524848792016943,-31.705454166979123,31.360302958996066,52.555145,-1.463279,7.398468102449352,0.0,True
2020-01-08 10:16:26.100,0.1225584027617601,-0.0110356696938897,-0.1371118449500799,-22.871683087007103,-31.15960398549164,31.33871292750126,52.555145,-1.463279,7.548784386468434,0.0,True
2020-01-08 10:16:26.200,0.005879970048,-0.152189667584,0.1106147607039999,-22.26500032,-31.4180002048,31.8580002048,52.555145,-1.463279,7.637402868622222,0.0,True
2020-01-08 10:16:26.300,-0.05587509376,0.231789754624,-0.185809908736,-22.6044996352,-31.7080000768,31.922999116800003,52.555145,-1.463279,7.763305577955555,0.0,True
2020-01-08 10:16:26.400,-0.106989686784,-0.084889960704,-0.07225003264,-22.08249984,-31.77249984,30.8910006016,52.555145,-1.463279,7.817805661155556,0.0,True
2020-01-08 10:16:26.500,0.2779392814937978,-0.0456242892125807,-0.0882059614345299,-21.794242149984875,-31.57969704100393,31.632424033988503,52.555145,-1.463279,7.967272760640729,0.0,True
2020-01-08 10:16:26.600,0.0896633572520283,-0.0597029333563142,0.030427700738345,-21.52841594196654,-31.709009913035985,31.44940602893055,52.555145,-1.463279,8.022057207728219,0.0,True
2020-01-08 10:16:26.700,0.0033332965279699,0.2269847651654043,-0.1635576092718485,-22.25636322497731,-31.68727228297549,32.038484299969745,52.555145,-1.463279,8.058165052948294,0.0,True
2020-01-08 10:16:26.800,-0.0519841573919413,0.1073514910108457,-0.1974673153693879,-21.64059407245565,-31.148910985448545,31.29930699995691,52.555145,-1.463279,8.172271731076478,0.0,True
2020-01-08 10:16:26.900,-0.05367504384,0.161645021952,-0.09949998848,-21.71249984,-31.8829997568,31.80499968,52.555145,-1.463279,8.223458412088888,0.0,True
2020-01-08 10:16:27.000,-0.100604951808,0.162764880384,-0.07542496256,-21.4714998784,-31.67250048,31.41750016,52.555145,-1.463279,8.339305603555557,0.0,True
2020-01-08 10:16:27.100,-0.0258423852978519,0.027733419614759,-0.0265181847801633,-21.37666690801331,-32.1872722829755,31.63,52.555145,-1.463279,8.424394016643152,0.0,True
2020-01-08 10:16:27.200,0.020992,0.111328,0.01554,-21.7292,-31.46,31.7692,52.555145,-1.463279,8.576688888888889,0.0,True
2020-01-08 10:16:27.300,-0.043352,-0.0974599999999999,0.175392,-21.58,-31.2804,32.4504,52.555145,-1.463279,8.750488888888889,0.0,True
2020-01-08 10:16:27.400,-0.0163049534764061,0.1168890682861422,-0.2348286900142194,-21.30188114495439,-31.40990097102636,32.080693000043084,52.555145,-1.463279,8.783003315610461,0.0,True
2020-01-08 10:16:27.500,-0.034504971008,-0.201319904512,-0.0134998732799999,-21.052500480000003,-31.32500032,31.6035004416,52.555145,-1.463279,8.930611194311112,0.0,True
2020-01-08 10:16:27.600,0.011185030656,-0.071904988928,0.129929893888,-21.6794999552,-31.67499968,32.11499968,52.555145,-1.463279,9.05490283662222,0.0,True
2020-01-08 10:16:27.700,0.04769998208,-0.076535082496,-0.0121250047999999,-21.5734998016,-31.3430003968,31.793500441600003,52.555145,-1.463279,9.153013974044445,0.0,True
2020-01-08 10:16:27.800,0.021514989824,-0.142884815616,-0.015184985856,-21.31,-31.8054997248,32.3604999168,52.555145,-1.463279,9.274777814755558,0.0,True
2020-01-08 10:16:27.900,0.004159983616,0.076634891776,-0.007635047936,-21.2259996416,-31.4670001152,32.3535004416,52.555145,-1.463279,9.350472335644445,117.20231511894758,True
2020-01-08 10:16:28.000,-0.010159968256,-0.071870020352,-0.082160046336,-20.8340003584,-31.5644997632,32.78999936,52.5551142498688,-1.46318059958016,9.505277795555555,117.2020784106012,True
2020-01-08 10:16:28.100,0.0246514885485326,-0.1208849280743899,-0.086578581088594,-21.31909094200181,-31.240909057998184,31.91121201699425,52.55494,-1.462623,9.54677615903135,0.0,True
2020-01-08 10:16:28.200,-0.0375534786873528,-0.1863841219067703,0.1963257191450101,-21.22267317397112,-31.27871292750126,31.81970301446528,52.55494,-1.462623,9.652180971415005,0.0,True
2020-01-08 10:16:28.300,-0.152715014144,0.121005005568,-0.0134950571519999,-20.5045002752,-31.7034998016,32.2830003968,52.55494,-1.462623,9.692166718577777,0.0,True
2020-01-08 10:16:28.400,-0.12657480832,0.0958348610559999,-0.0792299566079999,-20.8519999232,-31.4294999552,32.7169996032,52.55494,-1.462623,9.779527856355555,0.0,True
2020-01-08 10:16:28.500,0.124264984064,-0.068554914048,-0.018209985536,-20.7680000768,-31.3519999232,32.34000064,52.55494,-1.462623,9.891555588266668,0.0,True
2020-01-08 10:16:28.600,0.071659865856,0.02804992512,0.0246251008,-20.7679995648,-31.3535004416,33.11499968,52.55494,-1.462623,9.948958392888889,0.0,True
2020-01-08 10:16:28.700,-0.0983636069083753,-0.0558090344668868,0.1152119645013562,-20.29303067602057,-31.84454510898094,32.76575785001513,52.55494,-1.462623,10.032138061917482,0.0,True
2020-01-08 10:16:28.800,-0.0530059407245565,0.0099871150809442,-0.0951207717517761,-20.751188043525097,-31.270396014508364,33.09019795656108,52.55494,-1.462623,10.067673275357322,0.0,True
2020-01-08 10:16:28.900,-0.0513424142594493,-0.0998757415591165,0.0731030223495613,-20.09272717399456,-31.03121201699425,32.57060609900212,52.55494,-1.462623,10.145016871279777,0.0,True
2020-01-08 10:16:29.000,-0.0066881003013704,-0.102870314626734,0.0768316933270135,-20.09841594196654,-30.960297086920928,32.78841594196654,52.55494,-1.462623,10.218844895725697,0.0,True
2020-01-08 10:16:29.100,0.1148786661632865,-0.2321423581463543,0.144151450536436,-20.759696316964,-31.39151497599032,33.53454510898094,52.55494,-1.462623,10.328670090197564,0.0,True
2020-01-08 10:16:29.200,-0.0892891189792437,-0.0979950292879393,0.0423940582615814,-19.81970301446528,-31.19920797098327,32.96039601450837,52.55494,-1.462623,10.416903190820946,0.0,True
2020-01-08 10:16:29.300,-0.14677488512,0.0218947883519999,0.03009998848,-20.302500480000003,-31.4894994432,32.9090006784,52.55494,-1.462623,10.424986127644443,0.0,True
2020-01-08 10:16:29.400,-0.0015650314239999,-0.2255098562559999,0.032515075584,-20.82749952,-30.8055002368,33.688499481600005,52.55494,-1.462623,10.468402869333334,0.0,True
2020-01-08 10:16:29.500,-0.035379966208,-0.1060903050239999,0.1700701585919999,-20.1239997184,-31.12,33.0660002816,52.55494,-1.462623,10.593291680711111,0.0,True
2020-01-08 10:16:29.600,0.016715030784,-0.513930011648,0.336779812608,-19.8340003584,-31.2055003648,33.4114998784,52.55494,-1.462623,10.612861115022222,0.0,True
2020-01-08 10:16:29.700,0.0075597864959999,-0.499264871424,0.095640033024,-20.1794994432,-31.6704999168,33.25,52.55494,-1.462623,10.638138974577776,0.0,True
2020-01-08 10:16:29.800,-0.2584090272264874,-0.3181211745479276,0.1845607691889977,-19.48696986700938,-31.46606026598124,33.27878798300575,52.55494,-1.462623,10.76074077258509,0.0,True
2020-01-08 10:16:29.900,-0.1270920584187301,-0.2274772071142698,0.3607336151024888,-19.740495043482007,-30.99861389852762,33.498613898527616,52.55494,-1.462623,10.798910884062341,0.0,True
2020-01-08 10:16:30.000,0.0340029825273648,-0.0631697276316912,-0.0289605519770169,-19.59454510898094,-31.367575966011497,33.83878798300575,52.55494,-1.462623,10.749385555862986,0.0,True
2020-01-08 10:16:30.100,-0.0201613736309694,-0.0555979849492181,0.0465574205829199,-19.109108942009627,-31.699504956517995,34.030099028973645,52.55494,-1.462623,10.829843252001886,0.0,True
2020-01-08 10:16:30.200,0.0975700549119999,0.206044869632,-0.037335173376,-19.3144997632,-31.6839997184,34.1809999616,52.55494,-1.462623,10.953763785244444,0.0,True
2020-01-08 10:16:30.300,0.145194892032,0.046145056512,-0.26737499904,-18.9804999168,-31.3190000384,34.13,52.55494,-1.462623,10.840111213511111,0.0,True
2020-01-08 10:16:30.400,0.008085026816,0.12810002944,-0.228959841536,-18.8985001216,-31.3985001216,34.1390000384,52.55494,-1.462623,10.970527753955555,0.0,True
2020-01-08 10:16:30.500,0.036829970688,0.16404998656,-0.032585060096,-19.0885001216,-31.5509999616,34.1614998784,52.55494,-1.462623,10.947305591466668,0.0,True
2020-01-08 10:16:30.600,-0.016710062336,0.172960114176,-0.126785061376,-19.2034998016,-31.5,34.0090000384,52.55494,-1.462623,10.987666635377778,0.0,True
2020-01-08 10:16:30.700,-0.07339988864,0.284444828672,-0.185109901056,-19.079500595200003,-31.5660002816,34.0419999232,52.55494,-1.462623,10.966486198044445,0.0,True
2020-01-08 10:16:30.800,0.062769949952,0.077105086208,-0.048839979264,-19.8144997632,-31.8364995584,33.9685001216,52.55494,-1.462623,11.049402638933334,0.0,True
2020-01-08 10:16:30.900,-0.031810119936,0.1667148938239999,-0.036015062784,-19.3589993984,-31.32500032,34.063999718400005,52.55494,-1.462623,10.900708485688888,0.0,True
2020-01-08 10:16:31.000,-0.1501150031418161,0.0259121219800423,-0.1254454764312071,-18.56909094200181,-31.65454510898094,33.82181865902632,52.55494,-1.462623,11.10090908313846,0.0,True
2020-01-08 10:16:31.100,0.0672019724685766,0.017262370003878,-0.1070702639336325,-18.54079202901673,-31.15960398549164,34.422178130489115,52.55494,-1.462623,11.080352029794026,0.0,True
2020-01-08 10:16:31.200,-0.0191303809742991,-0.0141514396758369,0.1419150483943121,-18.24424287402481,-31.20939335796793,33.74606080901119,52.55494,-1.462623,11.04076601414004,0.0,True
2020-01-08 10:16:31.300,-0.1415376249268118,0.1174277321680679,-0.0344396146310429,-18.928910884062343,-30.647425956388723,34.03148513044603,52.55494,-1.462623,11.070987347424325,0.0,True
2020-01-08 10:16:31.400,-0.133404923648,0.17924992768,-0.10492491904,-18.8609999616,-32.3544996352,33.9730003968,52.55494,-1.462623,11.074416728177779,0.0,True
2020-01-08 10:16:31.500,-0.0389545706313886,0.0538211057641336,0.0065242566307835,-18.89484879201694,-31.89878798300575,34.52878798300575,52.55494,-1.462623,11.138981419468802,0.0,True
2020-01-08 10:16:31.600,-0.0602049392823377,-0.0667871008868758,0.015414843193564,-19.22267317397112,-32.06,34.629801942052715,52.55494,-1.462623,11.020217257255378,0.0,True
2020-01-08 10:16:31.700,0.002194865152,0.146189913344,-0.042039948544,-18.5330003968,-31.90999936,34.245499724800005,52.55494,-1.462623,10.932972367644444,0.0,True
2020-01-08 10:16:31.800,-0.1961576454738453,0.0202514758778337,0.0541788888055668,-19.050909057998183,-31.135757850015125,33.907272826005446,52.55494,-1.462623,11.113063925830728,0.0,True
2020-01-08 10:16:31.900,-0.3089742605777493,-0.009751465664295,0.1903237497180196,-19.049108942009628,-31.550495043482005,34.18990107241256,52.55494,-1.462623,11.043652367550896,0.0,True
2020-01-08 10:16:32.000,-0.303434863616,0.142484952576,0.05922489344,-19.3009999616,-31.5930003968,34.6819991552,52.55494,-1.462623,11.060930546488889,0.0,True
2020-01-08 10:16:32.100,-0.120784993536,0.058604910848,-0.0498848616959999,-19.2965001984,-32.1485001216,33.5419999232,52.55494,-1.462623,11.031972150044444,0.0,True
2020-01-08 10:16:32.200,-0.0759448453119999,-0.0334898877439999,0.13515000576,-19.5885001216,-32.225999641600005,33.4580000768,52.55494,-1.462623,10.928736079644445,0.0,True
2020-01-08 10:16:32.300,0.107499920355607,0.0681452827505242,0.1369211908388261,-19.76818188400363,-31.68333309198669,33.58878798300575,52.55494,-1.462623,10.892710458584485,0.0,True
2020-01-08 10:16:32.400,-0.0074919999999999,-0.108288,0.049968,-19.8204,-31.3308,33.7004,52.55494,-1.462623,10.913977777777777,0.0,True
2020-01-08 10:16:32.500,0.0444871343443227,0.2996890703138663,-0.181359372774256,-19.76752488397616,-31.51920797098327,33.44,52.55494,-1.462623,10.86099560265508,0.0,True
2020-01-08 10:16:32.600,0.0729272047662514,0.0634184979274356,0.057411978982155,-20.794242149984875,-31.90212107499244,33.317272282975495,52.55494,-1.462623,10.885723901305314,0.0,True
2020-01-08 10:16:32.700,-0.0184970210198945,0.5175643343615584,-0.1613485140584643,-20.430198057947287,-31.76920797098327,32.76782186951089,52.55494,-1.462623,10.867667759666258,0.0,True
2020-01-08 10:16:32.800,0.061980032768,0.377110190336,-0.183455122688,-20.7785001216,-32.19,33.3589993984,52.55494,-1.462623,10.772055401955555,0.0,True
2020-01-08 10:16:32.900,0.0986899709439999,0.591694836992,-0.323869903872,-21.079500595200003,-32.2170001152,32.6635004416,52.55494,-1.462623,10.601347364266667,0.0,True
2020-01-08 10:16:33.000,0.0488878381977611,0.3868970120423356,-0.193230292279407,-21.88969704100393,-32.389697041003934,33.013635507952806,52.55494,-1.462623,10.756834896771155,0.0,True
2020-01-08 10:16:33.100,-0.0157217833326151,0.4638693141983773,-0.1874198088363145,-22.05861389852761,-32.51900991303599,31.62029698553473,52.55494,-1.462623,10.557645756043955,0.0,True
2020-01-08 10:16:33.200,-0.0054499148799999,0.489909851136,-0.227094924032,-22.3609999616,-32.3859990016,31.1464995584,52.55494,-1.462623,10.487736118044444,0.0,True
2020-01-08 10:16:33.300,0.097114955264,0.319365115904,-0.132155025408,-22.4135004416,-31.17250048,30.6170002432,52.55494,-1.462623,10.469194326044443,0.0,True
2020-01-08 10:16:33.400,0.0527455090130042,0.4099967405273597,-0.1381726268944634,-22.91515120798305,-31.71606026598124,30.96878798300575,52.55494,-1.462623,10.318468037084637,0.0,True
2020-01-08 10:16:33.500,0.132328,0.094492,0.01814,-22.588800000000003,-31.3596,30.9892,52.55494,-1.462623,10.33788888888889,0.0,True
2020-01-08 10:16:33.600,0.1052653449285354,0.2614970058119641,0.0335643627496952,-23.40960398549164,-32.24049504348201,30.151782115980748,52.55494,-1.462623,10.250915843396621,0.0,True
2020-01-08 10:16:33.700,0.0945121310305415,0.0650484987807684,0.0883787946803751,-23.610909057998185,-32.22787892500756,29.79060664203207,52.55494,-1.462623,10.246077368551557,0.0,True
2020-01-08 10:16:33.800,0.0700009649431857,0.0961524813005822,0.1048247562295485,-23.66930699995691,-32.34019795656108,30.431782014594543,52.55494,-1.462623,10.119015392115363,0.0,True
2020-01-08 10:16:33.900,-0.1431424323604477,0.1238090073153892,0.1424212342812222,-24.287878925007565,-31.92363677502269,28.975151207983057,52.55494,-1.462623,10.049385555862985,0.0,True
2020-01-08 10:16:34.000,-0.1254900798669813,0.0069198098501765,0.1547277088492412,-24.519009913035983,-32.461782115980746,28.401782115980748,52.55494,-1.462623,10.071229353474267,0.0,True
2020-01-08 10:16:34.100,0.037880012288,0.070739990784,0.058715088384,-24.7145004032,-31.9580000768,27.88,52.55494,-1.462623,9.913888913777779,0.0,True
2020-01-08 10:16:34.200,0.049457558589053,0.0586666672700332,0.1508271812349535,-25.287878925007565,-32.097878925007564,27.945151751013007,52.55494,-1.462623,9.948459601444746,0.0,True
2020-01-08 10:16:34.300,0.0177356402918908,0.0010019430665777,0.0485713120135046,-25.430296985534724,-32.26089105799038,28.23079202901673,52.55494,-1.462623,9.941278867961087,0.0,True
2020-01-08 10:16:34.400,-0.023020056832,-0.179034439936,0.2039197726719999,-25.1920005632,-32.0,27.6224992,52.55494,-1.462623,9.851430527288889,0.0,True
2020-01-08 10:16:34.500,-0.090459965696,0.4846096578559999,-0.083944940032,-25.9865001984,-32.0660002816,26.5885001216,52.55494,-1.462623,9.775347057777777,0.0,True
2020-01-08 10:16:34.600,-0.02937493376,0.137195456512,-0.0608502412799999,-26.1659996416,-32.4490000384,26.6839997184,52.55494,-1.462623,9.578402869333333,0.0,True
2020-01-08 10:16:34.700,0.0563499904,0.7103198584320001,-0.3442498419199999,-25.76500032,-32.4714998784,26.38500032,52.55494,-1.462623,9.686333275022221,0.0,True
2020-01-08 10:16:34.800,0.05305004032,0.4772098076159999,-0.124834959616,-26.26500032,-32.23499968,26.8385001216,52.55494,-1.462623,9.599013846755556,0.0,True
2020-01-08 10:16:34.900,0.08424990464,0.248280113408,-0.095065101824,-26.72750016,-31.7544997632,27.0285001216,52.55494,-1.462623,9.530430501688889,0.0,True
2020-01-08 10:16:35.000,-0.0172029390849686,0.3108996814224281,-0.1952847217230081,-26.89151497599032,-31.382424033988503,27.199090942001817,52.55494,-1.462623,9.460404045889192,0.0,True
2020-01-08 10:16:35.100,0.1296821818817786,-0.1625574134858858,-0.0184475369489343,-26.62,-31.15980204343892,27.180296985534724,52.55494,-1.462623,9.474609464571014,0.0,True
2020-01-08 10:16:35.200,0.1155948088319999,-0.078085078016,-0.097059899136,-26.6305000448,-31.80250048,26.84750016,52.55494,-1.462623,9.5034999936,0.0,True
2020-01-08 10:16:35.300,-0.1217847886967022,-0.1475483612131806,0.0138999167354073,-26.670302958996068,-32.37333309198669,27.06,52.55494,-1.462623,9.46680124471659,0.0,True
2020-01-08 10:16:35.400,-0.0433039692698419,0.0002623487127754,-0.1218227766639376,-26.361980072541822,-32.07920797098327,27.15980204343892,52.55494,-1.462623,9.284026386885808,0.0,True
2020-01-08 10:16:35.500,-0.132130061568,-0.23110000256,-0.1178148259839999,-25.31,-32.5180000768,27.5579994368,52.55494,-1.462623,9.137861051022222,0.0,True
2020-01-08 10:16:35.600,-0.1606721513083856,-0.2663713625257267,0.1226267547372583,-25.24465331075806,-32.52792057425,26.940693378483875,52.55494,-1.462623,9.056281623966285,0.0,True
2020-01-08 10:16:35.700,0.1145345592912664,-0.472376600003103,0.176807065613703,-24.782323863900828,-32.01696957472887,27.733838068049582,52.55494,-1.462623,9.047368116646584,0.0,True
2020-01-08 10:16:35.800,-0.050254926848,-0.5559497536,0.147349856,-24.21249984,-32.1770002432,28.03750016,52.55494,-1.462623,9.03354157511111,0.0,True
2020-01-08 10:16:35.900,0.039864969984,-0.27242518656,-0.006504840448,-23.96249984,-32.3679994368,28.2965001984,52.55494,-1.462623,8.902069402311112,0.0,True
2020-01-08 10:16:36.000,-0.0088636684517698,-0.4582300786876259,0.1739301891037161,-23.730302958996067,-31.791212741034187,28.60848502400968,52.55494,-1.462623,8.852760966834662,0.0,True
2020-01-08 10:16:36.100,-0.0613831701437909,-0.1610376553426726,0.0190703105712859,-23.512277159462755,-32.68980194205272,28.97821788401925,52.55494,-1.462623,8.872750264096977,0.0,True
2020-01-08 10:16:36.200,-0.06942496896,-0.386589832704,0.1092449003519999,-22.9580000768,-32.2484994816,29.5465001984,52.55494,-1.462623,8.764902708622222,0.0,True
2020-01-08 10:16:36.300,-0.0487152257840964,-0.1913243398953762,0.0070364727360176,-22.91757524197156,-31.56909094200181,29.95242475802844,52.55494,-1.462623,8.666531962915364,0.0,True
2020-01-08 10:16:36.400,-0.11445937480198,-0.3067257201588722,0.1317128433507126,-22.180198057947287,-31.610495043482008,30.691386101472386,52.55494,-1.462623,8.633168318839331,0.0,True
2020-01-08 10:16:36.500,0.123859902976,-0.142470100992,-0.0853399267839999,-22.3409993216,-31.6440003584,30.45500032,52.55494,-1.462623,8.6304999168,0.0,True
2020-01-08 10:16:36.600,-0.007880012288,-0.269804971008,0.011419997952,-21.4114998784,-31.96999936,30.9265001984,52.55494,-1.462623,8.535000064,0.0,True
2020-01-08 10:16:36.700,-0.02892502016,-0.26265013376,0.0246750681599999,-21.32500032,-31.1109999616,31.302500480000003,52.55494,-1.462623,8.616249984,0.0,True
2020-01-08 10:16:36.800,-0.038704927488,-0.433909972736,0.092354902528,-21.5429991168,-31.2565008384,31.8739997184,52.55494,-1.462623,8.5777499264,142.82795852902143,True
2020-01-08 10:16:36.900,0.0513299732479999,-0.422075104,0.0049451793919999,-20.3234998016,-32.3054997248,31.72500096,52.5548477496064,-1.46250794950912,8.465458271288888,142.82755207814802,True
2020-01-08 10:16:37.000,0.0248151841518001,-0.4976543190275109,0.1989725671611687,-20.07969704100393,-32.00515175101301,33.02878798300575,52.554325,-1.461856,8.376826576776534,0.0,True
2020-01-08 10:16:37.100,0.0691376198575016,-0.1971901305600827,-0.0446762350740499,-19.9016829856209,-32.202079101515466,33.29930699995691,52.554325,-1.461856,8.351625418675733,0.0,True
2020-01-08 10:16:37.200,0.03685000192,-0.41827481472,-0.029255025408,-18.44500032,-31.31,33.9265001984,52.554325,-1.461856,8.406805571555557,0.0,True
2020-01-08 10:16:37.300,0.0397150013439999,-0.1941000934399999,-0.061559993856,-18.6929992448,-31.23499968,34.15249984,52.554325,-1.461856,8.416805507555555,0.0,True
2020-01-08 10:16:37.400,0.0344603793862094,-0.3502347292488315,-0.0544247548994758,-17.652871199294356,-30.967426114991937,34.09742611499194,52.554325,-1.461856,8.360935112149754,0.0,True
2020-01-08 10:16:37.500,-0.0052494996353932,-0.5183304151862598,-0.0499344181031138,-17.24484989061797,-31.790808651265262,34.92080865126526,52.554325,-1.461856,8.3913805774923,0.0,True
2020-01-08 10:16:37.600,-0.020951586293924,-0.4689213754690098,0.0340000760241932,-15.993333091986688,-31.443333816026623,34.51575785001513,52.554325,-1.461856,8.300597638221955,0.0,True
2020-01-08 10:16:37.700,-0.1153168217453128,-0.7039049392823378,0.1349188013109236,-15.3728711305322,-32.09970291307907,34.94950495651799,52.554325,-1.461856,8.280514293483204,0.0,True
2020-01-08 10:16:37.800,-0.0522950865919999,-0.619995043072,0.05102502016,-13.9939997184,-31.6860002816,34.92499968,52.554325,-1.461856,8.210138872888889,0.0,True
2020-01-08 10:16:37.900,-0.1680424269301482,-0.686154577871788,0.0973303737338998,-13.506363224977308,-32.08878798300575,34.58484879201694,52.554325,-1.461856,8.196043796945874,0.0,True
2020-01-08 10:16:38.000,-0.1295227452342148,-0.6925772000172357,0.1571158101644737,-12.573762188522574,-32.18980194205272,35.09009902897365,52.554325,-1.461856,8.224537946461888,0.0,True
2020-01-08 10:16:38.100,0.0938818061693374,-0.4654818369410347,-0.061693777911093,-10.97121201699425,-31.794242149984875,35.25909094200181,52.554325,-1.461856,8.1666750972785,0.0,True
2020-01-08 10:16:38.200,0.0680128666695392,-0.4442504632082143,0.1337474903112809,-10.63257414499748,-31.46980204343892,35.251386101472384,52.554325,-1.461856,8.180123758054219,0.0,True
2020-01-08 10:16:38.300,0.022804972288,-0.19725008512,-0.155480002048,-9.65249984,-31.8679994368,34.9955002368,52.554325,-1.461856,8.146305565866665,0.0,True
2020-01-08 10:16:38.400,-0.001759947776,-0.288564907264,-0.160180008448,-9.2329991168,-31.261000601600003,35.263499801600005,52.554325,-1.461856,8.164333351822222,0.0,True
2020-01-08 10:16:38.500,0.0651699896319999,-0.1706500224,-0.1798300359679999,-8.0419999232,-32.0044997632,34.96249984,52.554325,-1.461856,8.182597195377777,0.0,True
2020-01-08 10:16:38.600,0.0477484716292708,-0.2235364473946198,-0.2130847959371016,-7.674847524947055,-31.7460608090112,34.77878798300575,52.554325,-1.461856,8.147996636805766,0.0,True
2020-01-08 10:16:38.700,0.0264603955075773,-0.3342326613117854,-0.1355861410130002,-6.0711880435250976,-32.01089105799038,34.772079101515466,52.554325,-1.461856,8.15881738486118,0.0,True
2020-01-08 10:16:38.800,-0.005570117632,-0.28717522688,-0.1139848220159999,-5.1489987584,-31.7680000768,33.8604999168,52.554325,-1.461856,8.186791674311111,0.0,True
2020-01-08 10:16:38.900,-0.160629995008,-0.550669838592,0.0859048442879999,-3.4804999168,-31.9360002816,33.63749952,52.554325,-1.461856,8.19831945031111,0.0,True
2020-01-08 10:16:39.000,-0.126609883136,-0.440655445248,-0.06854977664,-3.2679995648,-32.206499558400004,32.84999936,52.554325,-1.461856,8.191986050844445,0.0,True
2020-01-08 10:16:39.100,0.0334750208,-0.965264715264,0.204594899712,-2.5489993984,-31.7805006848,31.9069996032,52.554325,-1.461856,8.128444514844444,0.0,True
2020-01-08 10:16:39.200,0.031879875328,-0.637305214208,0.09667510784,-1.67499968,-32.6239997184,31.2764995584,52.554325,-1.461856,8.226444463644444,0.0,True
2020-01-08 10:16:39.300,-0.1250484535282724,-0.909906017547625,0.2268544982273951,-1.013635507952803,-32.36363677502269,30.699090942001817,52.554325,-1.461856,8.24861951658267,0.0,True
2020-01-08 10:16:39.400,-0.0756019795656108,-0.8173197855174879,0.1499821757986064,0.4890100144221873,-33.00950495651799,30.54247511602384,52.554325,-1.461856,8.246149625194922,0.0,True
2020-01-08 10:16:39.500,-0.084535060736,-0.677379991808,0.140590046464,1.4685001216,-33.013499801600005,29.4204999168,52.554325,-1.461856,8.317986051555556,0.0,True
2020-01-08 10:16:39.600,-0.120034807296,-0.67820004992,0.177234893056,1.8070007552,-32.7034998016,28.9544984832,52.554325,-1.461856,8.248513929955555,0.0,True
2020-01-08 10:16:39.700,0.142560028416,-0.759485063936,0.058840100864,2.7919999232,-32.3919997952,26.9204999168,52.554325,-1.461856,8.287430488888889,0.0,True
2020-01-08 10:16:39.800,0.1253907103090357,-0.8100816939431474,0.1864060374587232,2.756666908013312,-32.23363677502269,26.5736355079528,52.554325,-1.461856,8.213619581947386,0.0,True
2020-01-08 10:16:39.900,-0.166212,-0.655772,0.1718,3.33,-32.8108,25.1396,52.554325,-1.461856,8.296244444444444,0.0,True
2020-01-08 10:16:40.000,-0.0872039631866697,-0.7869563927802885,0.2418009639293237,4.329306898570708,-32.728118956431814,24.531485130446026,52.554325,-1.461856,8.28743948792645,0.0,True
2020-01-08 10:16:40.100,-0.122930052608,-0.4789752191999999,0.051365123584,4.2295007232,-33.7989993984,24.2479994368,52.554325,-1.461856,8.241444463644443,0.0,True
2020-01-08 10:16:40.200,-0.1397998081294169,-0.663554159738725,0.1509088570771025,5.143030132990622,-32.96212107499244,23.42424214998488,52.554325,-1.461856,8.277424280363203,0.0,True
2020-01-08 10:16:40.300,0.1138474974083151,-0.2013317683528037,-0.1050256755489429,4.9196039854916345,-32.780099028973645,22.7623760870502,52.554325,-1.461856,8.338311332527313,0.0,True
2020-01-08 10:16:40.400,-0.1166727318802541,-0.8584391873686061,0.4082634602902882,5.186060809011194,-32.94909094200181,21.35757524197156,52.554325,-1.461856,8.35016835077781,0.0,True
2020-01-08 10:16:40.500,-0.100856,-0.593364,0.1519319999999999,5.46,-33.0496,20.5008,52.554325,-1.461856,8.337822222222222,0.0,True
2020-01-08 10:16:40.600,0.0108799999999999,-0.87146,0.26154,5.2196,-33.31,20.15,52.554325,-1.461856,8.282455555555556,0.0,True
2020-01-08 10:16:40.700,-0.0346306928986568,-0.7669653064017783,0.353373240886014,5.199406028930553,-33.34960398549163,19.76098998557781,52.554325,-1.461856,8.3411138506508,0.0,True
2020-01-08 10:16:40.800,-0.022264953344,-0.457110113536,0.150945082112,5.8454995968,-33.56,18.77249984,52.554325,-1.461856,8.250486108444445,0.0,True
2020-01-08 10:16:40.900,0.0103665604741427,-0.5124148058409336,0.2064088968992989,5.510000724039935,-33.62666690801331,18.48424214998488,52.554325,-1.461856,8.232718803719381,0.0,True
2020-01-08 10:16:41.000,-0.1542960398549163,-0.0472129153349166,-0.0720762239215676,6.530197956561081,-34.049108942009624,18.01089105799037,52.554325,-1.461856,8.148787126008123,0.0,True
2020-01-08 10:16:41.100,-0.139239926784,-0.301314508544,0.012244869632,6.1590006784,-34.1794994432,17.7590000384,52.554325,-1.461856,8.127902785422222,0.0,True
2020-01-08 10:16:41.200,-0.021359911936,0.303744796672,-0.1365548961279999,6.7884988416,-33.4114998784,17.6044991232,52.554325,-1.461856,8.124097162666667,0.0,True
2020-01-08 10:16:41.300,0.078784928256,0.055735094016,-0.003655021568,5.4090006784,-33.3805005568,16.552500480000003,52.554325,-1.461856,8.0517500288,0.0,True
2020-01-08 10:16:41.400,-0.015089993984,0.17654998272,-0.011989913344,6.1419992832,-34.08249984,17.07749952,52.554325,-1.461856,8.103958392888888,0.0,True
2020-01-08 10:16:41.500,-0.027905088768,0.1002297722879999,0.128540108544,5.1059996416,-33.98250048,16.4865001984,52.554325,-1.461856,8.167888824177778,0.0,True
2020-01-08 10:16:41.600,-0.143234989056,-0.160589822464,0.223589790464,4.5729997568,-34.5269996032,16.7590000384,52.554325,-1.461856,8.062444361244443,0.0,True
2020-01-08 10:16:41.700,-0.101069882112,-0.0039853378559999,-0.0043897853439999,4.2965001984,-34.1590006784,16.84750016,52.554325,-1.461856,7.954069453511111,0.0,True
2020-01-08 10:16:41.800,0.05347499136,-0.416864847104,0.264394930432,4.48499968,-34.9294994432,17.0329998848,52.554325,-1.461856,7.977486159644444,0.0,True
2020-01-08 10:16:41.900,0.02167491328,-0.2316650762239999,0.194710096896,4.1080002048,-34.2830003968,16.776499558399998,52.554325,-1.461856,8.034444412444444,0.0,True
2020-01-08 10:16:42.000,-0.086989972224,-0.3088848975359999,0.291644864512,4.4730003968,-34.613499161600004,16.3490006784,52.554325,-1.461856,7.999319475911111,0.0,True
2020-01-08 10:16:42.100,-0.044834977536,-0.176955017728,0.1226800468479999,4.92499968,-33.53750016,17.28750016,52.554325,-1.461856,8.052194491733333,0.0,True
2020-01-08 10:16:42.200,0.0061818948642295,-0.1615150103822155,0.189703047690959,4.546969867009379,-33.79696986700938,17.519697041003933,52.554325,-1.461856,8.104562251775693,0.0,True
2020-01-08 10:16:42.300,0.069712,0.033552,0.2229519999999999,4.6612,-34.010400000000004,17.6588,52.554325,-1.461856,8.071711111111112,0.0,True
2020-01-08 10:16:42.400,-0.2285138670978959,-0.1115653611503278,0.2415990005855053,3.968712927501261,-33.8688119564749,17.900297086920926,52.554325,-1.461856,8.213371841784578,0.0,True
2020-01-08 10:16:42.500,-0.24032484608,-0.142704610048,0.116744800512,4.44,-34.4714998784,18.38,52.554325,-1.461856,8.272486198755555,0.0,True
2020-01-08 10:16:42.600,-0.03432499328,0.299359676416,-0.116204863488,4.4114998784,-34.27249984,18.3604999168,52.554325,-1.461856,8.402722281244444,0.0,True
2020-01-08 10:16:42.700,-0.051920113152,-0.0541696747519999,0.03592487552,4.3535004416000005,-34.02249984,18.40000064,52.554325,-1.461856,8.496986178844445,0.0,True
2020-01-08 10:16:42.800,-0.131384697856,0.318309746176,-0.1270449899519999,4.8739997184,-33.77249984,19.2214998784,52.554325,-1.461856,8.60781953351111,0.0,True
2020-01-08 10:16:42.900,0.263179971328,0.0280451998719999,-0.081689863424,4.4909999616,-33.6635004416,19.1545004032,52.554325,-1.461856,8.728027785955556,0.0,True
2020-01-08 10:16:43.000,0.174984786176,0.250389816064,0.0950499801599999,4.3934998016,-34.1284994816,19.802500480000003,52.554325,-1.461856,8.771139026488889,0.0,True
2020-01-08 10:16:43.100,-0.08304988928,-0.0039800430079999,0.068820000512,4.0819997952,-33.44,20.3934998016,52.554325,-1.461856,8.95584723057778,0.0,True
2020-01-08 10:16:43.200,0.04124747092758,0.0037120345117759,0.0674207871604838,3.875346689241937,-33.486039712875,20.184950625044355,52.554325,-1.461856,9.001267957985664,0.0,True
2020-01-08 10:16:43.300,-0.066418345926489,0.4139906303818286,0.0108134532139698,4.268383705956278,-33.73161629404372,20.420808651265265,52.554325,-1.461856,9.212628963482436,0.0,True
2020-01-08 10:16:43.400,0.03837485696,0.513329421568,-0.132969455872,4.4355002368,-33.6485001216,20.0330003968,52.554325,-1.461856,9.312194491733335,0.0,True
2020-01-08 10:16:43.500,-0.106164806144,-0.164959616256,0.474709509376,4.7319999232,-33.8009999616,20.5705000448,52.554325,-1.461856,9.3967500928,0.0,True
2020-01-08 10:16:43.600,0.131964917504,0.289229763328,-0.15642491264,4.4694993152,-33.7304999168,20.6570001152,52.554325,-1.461856,9.5260000256,0.0,True
2020-01-08 10:16:43.700,0.055445140992,0.061795370752,-0.093710227456,3.5705000448,-33.62,20.8955003648,52.554325,-1.461856,9.599750169599998,0.0,True
2020-01-08 10:16:43.800,0.254655051008,0.485409706496,-0.35702483456,3.70500032,-33.592999884799994,21.4265001984,52.554325,-1.461856,9.834166705777779,0.0,True
2020-01-08 10:16:43.900,0.227419594752,0.209165484544,-0.173495154432,4.05499968,-33.4580000768,21.7365001984,52.554325,-1.461856,9.904111187911111,0.0,True
2020-01-08 10:16:44.000,-0.282404878848,0.8186498547200001,-0.3634949355519999,3.47999936,-33.59750016,22.0195000832,52.554325,-1.461856,10.024694523733332,0.0,True
2020-01-08 10:16:44.100,-0.130110036736,0.617014962944,-0.267579955968,2.7980007168,-33.7814998784,22.1480000768,52.554325,-1.461856,10.138083367822224,0.0,True
2020-01-08 10:16:44.200,-0.203005102848,0.582920064512,-0.23362510464,3.7409999616,-33.592999884799994,22.3445004032,52.554325,-1.461856,10.209388997688889,0.0,True
2020-01-08 10:16:44.300,-0.250904621568,0.579619620352,-0.321944783872,3.5684994816,-33.561500518399995,22.8980000768,52.554325,-1.461856,10.374597310577778,0.0,True
2020-01-08 10:16:44.400,0.2218817102340459,0.0769303085703055,-0.0413545688212888,2.983030676020573,-34.23030295899606,22.97121201699425,52.554325,-1.461856,10.491944444444444,0.0,True
2020-01-08 10:16:44.500,0.1007353516365197,0.1128568970753218,-0.0943157073765739,3.5113724879968475,-33.97411746399054,23.056274818854675,52.554325,-1.461856,10.52318631371529,0.0,True
2020-01-08 10:16:44.600,0.3428009735751282,0.2355199948800033,-0.1695968413757793,3.143938492807439,-33.20696984115081,24.29939325453365,52.554325,-1.461856,10.711027105239491,0.0,True
2020-01-08 10:16:44.700,0.272194810112,0.155810291456,-0.095015073024,2.4714998784,-33.3670002432,23.7634998016,52.554325,-1.461856,10.85506954311111,0.0,True
2020-01-08 10:16:44.800,0.038105077248,0.510334861056,-0.209865076224,2.34750016,-33.6794999552,23.4339997184,52.554325,-1.461856,11.000944507733333,0.0,True
2020-01-08 10:16:44.900,0.1251696407468989,0.3848911230117992,-0.3209333689319635,2.56,-33.601818115996366,23.21151570003025,52.554325,-1.461856,11.091523592640192,0.0,True
2020-01-08 10:16:45.000,0.0579227847748339,0.6865247339245839,-0.3707089075383176,2.520396014508365,-33.49049504348201,24.06,52.554325,-1.461856,11.150365800715843,0.0,True
2020-01-08 10:16:45.100,0.129294857472,0.5399700382720001,-0.345255011328,2.31,-33.5705005568,24.0509999616,52.554325,-1.461856,11.281513942755556,0.0,True
2020-01-08 10:16:45.200,-0.0491514758778337,0.5690271939056524,-0.3404362917260336,2.31,-34.17818134097368,23.943939190988807,52.554325,-1.461856,11.366060653141487,0.0,True
2020-01-08 10:16:45.300,0.01504,0.434364,-0.204256,2.2908,-33.52,23.75,52.554325,-1.461856,11.465644444444443,0.0,True
2020-01-08 10:16:45.400,0.0701666201516923,0.4035626998428864,-0.1166568083365542,2.1696078687273803,-33.988627389957784,24.39882350579011,52.554325,-1.461856,11.625849648432686,0.0,True
2020-01-08 10:16:45.500,0.2247417358385179,0.5409620227142259,-0.3135689471397763,1.999192357221541,-34.14394015794455,24.52686849332072,52.554325,-1.461856,11.755709705349465,0.0,True
2020-01-08 10:16:45.600,-0.0130998579199999,0.24247518848,-0.120330111488,1.63,-33.38749952,24.72750016,52.554325,-1.461856,11.90766669937778,0.0,True
2020-01-08 10:16:45.700,0.1466605012942214,0.4313755352077348,-0.2095513021082491,1.6390909420018152,-32.90151570003025,25.024848792016943,52.554325,-1.461856,11.95776096683466,0.0,True
2020-01-08 10:16:45.800,-0.0146396034785606,0.0992811956474903,0.1027326623256474,1.5315840580334623,-33.621683087007106,25.46990097102636,52.554325,-1.461856,12.013393851039448,0.0,True
2020-01-08 10:16:45.900,-0.028690077184,0.138204896768,0.0383001164799999,0.6990000383999999,-32.94,25.3670002432,52.554325,-1.461856,12.136277885155556,232.33837833861384,True
2020-01-08 10:16:46.000,-0.117909943296,0.003230009088,0.178269937152,0.7409999616,-33.004500275199995,25.69,52.5542619997312,-1.4619902505728,12.303638994488885,232.3387596691868,True
2020-01-08 10:16:46.100,-0.038669983232,0.02632504704,0.084014953984,0.6239997183999999,-33.2679995648,25.6990000384,52.553905,-1.462751,12.455013936355556,0.0,True
2020-01-08 10:16:46.200,-0.0178090960102813,0.0666181015155707,0.0508243435155759,0.2787879830057483,-32.76575785001513,25.77878798300575,52.553905,-1.462751,12.527272760640729,0.0,True
2020-01-08 10:16:46.300,-0.015556,0.015536,0.121552,0.4096,-33.1596,26.0296,52.553905,-1.462751,12.614444444444445,0.0,True
2020-01-08 10:16:46.400,0.0171059275443501,0.3004900362709141,-0.2623257008954937,0.2991089420096266,-32.91128707249874,26.42079202901673,52.553905,-1.462751,12.807755779788042,0.0,True
2020-01-08 10:16:46.500,-0.080854951168,-0.1174545390079999,0.04254980992,0.5044997632,-32.4294999552,25.9069996032,52.553905,-1.462751,12.859097290666666,0.0,True
2020-01-08 10:16:46.600,-0.045205124608,0.387519542272,-0.150019744512,0.22750016,-32.5110006016,25.3980000768,52.553905,-1.462751,12.97745845048889,0.0,True
2020-01-08 10:16:46.700,-0.180129869568,-0.14412467456,0.129944746752,0.4114998784,-33.3009999616,25.5195000832,52.553905,-1.462751,13.150763964444446,0.0,True
2020-01-08 10:16:46.800,-0.0171475489947583,0.2316493714071355,-0.1318899227439092,0.3242576014112923,-33.25,25.59287119929436,52.553905,-1.462751,13.259403209935371,0.0,True
2020-01-08 10:16:46.900,-0.0582233596574247,-0.0391821986563852,0.2210863931857322,0.6269705832156766,-33.05484989061797,25.459191348734738,52.553905,-1.462751,13.327724317202716,0.0,True
2020-01-08 10:16:47.000,0.0447666509791347,0.2122573250861736,-0.1762573830093685,-0.0639391909888058,-31.87,25.949090942001817,52.553905,-1.462751,13.479057330171692,0.0,True
2020-01-08 10:16:47.100,0.0151138579731377,-0.1151593677049458,0.0860029475503826,0.1517821159807467,-31.80188114495439,26.06970301446528,52.553905,-1.462751,13.611111105478544,0.0,True
2020-01-08 10:16:47.200,-0.031995078912,0.22092506624,-0.073529867008,-0.4180002048,-31.4670001152,26.4685001216,52.553905,-1.462751,13.593305681066665,0.0,True
2020-01-08 10:16:47.300,-0.110909889536,0.254164766464,0.103910003456,-0.7080000768,-31.4519992832,26.5444996352,52.553905,-1.462751,13.759083329422221,0.0,True
2020-01-08 10:16:47.400,0.0225878309573618,-0.0366059903961274,0.0759847307735073,-0.7539391909888059,-30.61363677502269,26.07969704100393,52.553905,-1.462751,13.76483168944663,0.0,True
2020-01-08 10:16:47.500,-0.0298871150809442,0.0716356433334769,-0.0612999716118632,-0.2308909566041705,-31.546237811477425,26.367425855002523,52.553905,-1.462751,13.822458743560215,0.0,True
2020-01-08 10:16:47.600,0.09025002496,0.092710098176,0.1221747673599999,0.80499968,-33.0554997248,27.31,52.553905,-1.462751,13.803347223466666,0.0,True
2020-01-08 10:16:47.700,0.062964742144,0.21567496832,-0.19715004416,0.3694999552,-32.6704999168,27.2259996416,52.553905,-1.462751,13.828541767111112,0.0,True
2020-01-08 10:16:47.800,-0.253039887104,0.168709979136,-0.174184651776,0.2454997247999999,-32.6440003584,26.8535004416,52.553905,-1.462751,13.959986102755556,0.0,True
2020-01-08 10:16:47.900,-0.0962899709439999,0.155520061952,0.283529979648,-0.1860002815999999,-32.9804994048,27.40249984,52.553905,-1.462751,13.940347185777778,0.0,True
2020-01-08 10:16:48.000,-0.067255040768,0.22872496128,0.159584586496,-0.6545004032,-32.1990000384,27.26500032,52.553905,-1.462751,13.902611156622223,0.0,True
2020-01-08 10:16:48.100,-0.1279250278399999,0.133664813824,-0.336679774208,-1.26500032,-32.1179994368,27.65249984,52.553905,-1.462751,13.954805520355556,0.0,True
2020-01-08 10:16:48.200,-0.1331298644479999,-0.080554859008,0.012160208896,-1.7080000768,-31.37,27.5330003968,52.553905,-1.462751,13.920638942577778,0.0,True
2020-01-08 10:16:48.300,0.0331749414399999,0.0318796807679999,0.293155015168,-1.77249984,-31.40750016,28.0044997632,52.553905,-1.462751,13.992694447644444,0.0,True
2020-01-08 10:16:48.400,-0.028219930112,-0.343244791552,0.26094977664,-1.4189993984,-31.84500096,27.7185001216,52.553905,-1.462751,13.99036108302222,0.0,True
2020-01-08 10:16:48.500,0.074590042624,-0.103945160192,0.016215221504,-0.6680002048,-33.12,27.8604999168,52.553905,-1.462751,13.968347287466667,0.0,True
2020-01-08 10:16:48.600,0.115314932224,-0.285334866176,0.25932478208,-0.8274995199999999,-33.19500032,27.8160002816,52.553905,-1.462751,14.04720830008889,0.0,True
2020-01-08 10:16:48.700,0.0047696226459005,-0.063569537571208,-0.080736546950111,-0.2748487920169425,-33.610909057998185,28.180909057998186,52.553905,-1.462751,14.014545496141182,0.0,True
2020-01-08 10:16:48.800,-0.1006633602936144,0.1677603863828191,-0.2716741987321655,-0.75,-33.55049504348201,28.209207970983268,52.553905,-1.462751,14.085225526567548,0.0,True
2020-01-08 10:16:48.900,-0.045994982912,0.115930124288,0.184084845056,-0.82500032,-33.5,28.6480000768,52.553905,-1.462751,14.105388831288888,0.0,True
2020-01-08 10:16:49.000,-0.025340008704,0.25654989568,-0.042865090304,-1.1839997184,-33.42499968,28.7034998016,52.553905,-1.462751,14.037472258844444,0.0,True
2020-01-08 10:16:49.100,-0.0045968527535497,0.0850907899534287,-0.1057088842286,-0.8009090579981848,-33.01818188400363,28.46878798300575,52.553905,-1.462751,14.094107773057152,0.0,True
2020-01-08 10:16:49.200,0.1782168328977951,-0.0636831458111022,0.1553068935013978,-0.7595049565179922,-33.14059407245565,28.709207970983268,52.553905,-1.462751,14.143509353862914,0.0,True
2020-01-08 10:16:49.300,0.128939746304,0.127565010944,-0.163055027968,-0.9975008,-33.2965001984,29.1390000384,52.553905,-1.462751,14.174347249066667,0.0,True
2020-01-08 10:16:49.400,-0.199734964736,0.13557497216,-0.1659698539519999,-1.8814992384,-33.475999641600005,29.1059996416,52.553905,-1.462751,14.20895832888889,0.0,True
2020-01-08 10:16:49.500,-0.118669853952,0.0965899914239999,0.037360039936,-0.8805000448,-32.9534998016,28.6104999168,52.553905,-1.462751,14.214888939377778,0.0,True
2020-01-08 10:16:49.600,0.077535009536,0.08272498944,0.0587198648319999,-0.9670001152,-32.774000358399995,28.5,52.553905,-1.462751,14.27956943431111,0.0,True
2020-01-08 10:16:49.700,0.089134995456,0.0294598325759999,-0.085654850048,-1.04499968,-33.2785001216,28.5465001984,52.553905,-1.462751,14.285444526933333,0.0,True
2020-01-08 10:16:49.800,0.0877060772809197,-0.1508392416716013,0.0874241480247932,-0.7063639490172451,-33.47787892500756,28.896363949017243,52.553905,-1.462751,14.402744135779324,0.0,True
2020-01-08 10:16:49.900,0.0949178100073251,0.0877574276799541,-0.0555108891316525,-1.2185148695539767,-33.65039601450837,29.28019795656108,52.553905,-1.462751,14.442590756845188,0.0,True
2020-01-08 10:16:50.000,-0.0301788833752673,0.1032878762098578,-0.0600546213141842,-1.2851512079830576,-33.42939390099788,28.645454166979125,52.553905,-1.462751,14.436473109530292,0.0,True
2020-01-08 10:16:50.100,-0.1669217752217189,0.0617871049423239,-0.1479504763884206,-0.8591089420096267,-33.420693101429286,28.229505057904195,52.553905,-1.462751,14.509496701287238,0.0,True
2020-01-08 10:16:50.200,-0.1021841432380643,-0.1447178388571776,0.0447228579684284,-1.1021781756612898,-33.642475135096774,29.03643542222177,52.553905,-1.462751,14.545167819086915,0.0,True
2020-01-08 10:16:50.300,-0.0937674724217647,-0.184940412393527,0.249345476548803,-1.0707065613703008,-33.43222177400586,28.53535328068515,52.553905,-1.462751,14.675204802552077,0.0,True
2020-01-08 10:16:50.400,-0.23007484672,-0.139319835392,0.18932482304,-1.5180000768,-33.725999641600005,28.7409999616,52.553905,-1.462751,14.70054169031111,0.0,True
2020-01-08 10:16:50.500,-0.019419969792,0.0385148259839999,-0.0274749222399999,-1.6019999232000002,-33.1284994816,28.6990000384,52.553905,-1.462751,14.738402805333333,0.0,True
2020-01-08 10:16:50.600,0.016784983296,-0.114479666688,0.047959881216,-1.5285001216,-32.59000064,28.7965001984,52.553905,-1.462751,14.794333415822223,0.0,True
2020-01-08 10:16:50.700,-0.010305020928,0.284054811648,-0.0936299310079999,-1.57749952,-33.40249984,29.06,52.553905,-1.462751,14.911555588266667,0.0,True
2020-01-08 10:16:50.800,-0.0305545181384933,0.0720668048376211,0.0229394842249799,-0.996060809011194,-33.17939390099788,29.10848502400968,52.553905,-1.462751,14.957861963222793,0.0,True
2020-01-08 10:16:50.900,0.006757422610644,0.3342119118649738,0.0632573627927843,-1.3004950434820075,-33.18970301446527,29.340396014508364,52.553905,-1.462751,14.973272826892355,0.0,True
2020-01-08 10:16:51.000,0.009060121856,0.537609770496,-0.454779958528,-1.3055002368,-33.475999641600005,29.1390000384,52.553905,-1.462751,14.99279176391111,0.0,True
2020-01-08 10:16:51.100,0.143584883456,0.287310232576,-0.359784829696,-1.5929998848,-33.0285001216,29.2740003584,52.553905,-1.462751,15.131402818133331,0.0,True
2020-01-08 10:16:51.200,0.007265078784,0.5267347036159999,-0.088089805824,-1.5420004352,-33.236500198399995,29.7785001216,52.553905,-1.462751,15.19383337102222,0.0,True
2020-01-08 10:16:51.300,0.0823847416341064,0.1044635326942819,0.1699666672700333,-2.195757850015128,-33.3772722829755,29.84454510898094,52.553905,-1.462751,15.242079118027416,0.0,True
2020-01-08 10:16:51.400,-0.0948445620242769,-0.0802485302802568,0.1830505027488334,-2.6009900869640155,-32.748613898527616,29.40980204343892,52.553905,-1.462751,15.232736524154278,0.0,True
2020-01-08 10:16:51.500,-0.142879934208,-0.204364977664,0.21564986368,-2.3679994368,-32.956499558400004,29.9955002368,52.553905,-1.462751,15.230486083555556,0.0,True
2020-01-08 10:16:51.600,-0.06510004096,-0.2016551150079999,0.094885257216,-1.77000064,-32.4645004032,30.3670002432,52.553905,-1.462751,15.197638904888889,0.0,True
2020-01-08 10:16:51.700,-0.1048029770970653,-0.3006573811992687,0.3831361704493443,-2.5442421499848726,-33.07575785001513,30.632424033988503,52.553905,-1.462751,15.222845132167455,0.0,True
2020-01-08 10:16:51.800,-0.0374386233274444,-0.0897753046021732,0.1187079425951319,-2.051881144954389,-33.450891057990376,30.321089115937657,52.553905,-1.462751,15.241039601450836,0.0,True
2020-01-08 10:16:51.900,-0.0422796820479999,-0.392694250752,0.170939442944,-1.76500032,-33.0954995968,30.45500032,52.553905,-1.462751,15.223916683377777,0.0,True
2020-01-08 10:16:52.000,0.35509989376,0.476834464256,-0.4558295175679999,-2.2170001152,-32.5795000832,31.0015005184,52.553905,-1.462751,15.260944507733331,0.0,True
2020-01-08 10:16:52.100,0.1743180381620763,-0.047229624352566,0.097399683232528,-2.3987879830057484,-32.66121201699425,31.614242149984875,52.553905,-1.462751,15.324839994357085,0.0,True
2020-01-08 10:16:52.200,-0.0441772253637863,0.922900939596635,-0.3746039489926013,-2.6883169129928954,-32.63782186951089,31.050593971069446,52.553905,-1.462751,15.210228271739808,0.0,True
2020-01-08 10:16:52.300,-0.029755022848,0.515340067584,-0.289830046208,-3.3144997632,-33.342999884799994,30.4975008,52.553905,-1.462751,15.197486095644443,0.0,True
2020-01-08 10:16:52.400,-0.0555696805690953,0.6265697746942871,-0.3410332965279699,-3.0378789250075635,-33.20818188400363,31.550909057998183,52.553905,-1.462751,15.168021853220441,0.0,True
2020-01-08 10:16:52.500,-0.013,0.6269600000000001,-0.222596,-3.4004,-33.220400000000005,31.5,52.553905,-1.462751,15.12218888888889,0.0,True
2020-01-08 10:16:52.600,0.0815719999999999,0.0486479999999999,0.047132,-4.2492,-32.7404,31.6008,52.553905,-1.462751,15.129666666666665,0.0,True
2020-01-08 10:16:52.700,0.091488,0.2317759999999999,-0.159584,-4.4704,-32.7092,32.198800000000006,52.553905,-1.462751,15.034511111111112,0.0,True
2020-01-08 10:16:52.800,0.0117009811649781,-0.0580900038273291,0.1255345932258808,-4.049108942009626,-32.84960398549163,32.620198057947285,52.553905,-1.462751,14.924744223028242,0.0,True
2020-01-08 10:16:52.900,-0.053109054377985,0.7294302651279094,-0.3611514487263362,-4.367575966011496,-32.86151443296037,33.00666690801331,52.553905,-1.462751,14.909099312276986,0.0,True
2020-01-08 10:16:53.000,-0.0068178282568416,0.6656831650744808,-0.2679366397063856,-4.7692079709832695,-31.85930699995691,33.34990097102636,52.553905,-1.462751,14.849232649370743,0.0,True
2020-01-08 10:16:53.100,-0.063365009664,0.693730235648,-0.322590017024,-5.1990000384,-32.40249984,33.1704999168,52.553905,-1.462751,14.624305450666666,0.0,True
2020-01-08 10:16:53.200,-0.044444864512,0.8392992857599999,-0.252169603072,-5.25,-32.1239997184,33.192000563200004,52.553905,-1.462751,14.464583246222222,0.0,True
2020-01-08 10:16:53.300,0.1186969088666447,-0.034936094425151,0.1969694144844189,-5.41060664203207,-31.76818188400363,33.90212107499244,52.553905,-1.462751,14.3254039553842,0.0,True
2020-01-08 10:16:53.400,0.042664,0.238524,-0.161744,-6.3996,-31.9212,33.6596,52.553905,-1.462751,14.150377777777779,0.0,True
2020-01-08 10:16:53.500,0.1454366386925235,-0.4762029475503826,0.2591277291264818,-6.939703014465277,-32.12029698553472,33.53960398549163,52.553905,-1.462751,13.870767294303588,0.0,True
2020-01-08 10:16:53.600,0.12902475008,-0.2101546785279999,0.263169789952,-7.3760002816,-31.7785001216,33.7785001216,52.553905,-1.462751,13.590638853688889,0.0,True
2020-01-08 10:16:53.700,-0.141294737152,0.188689880064,-0.005029954048,-7.8160002816,-31.9294999552,34.006000281599995,52.553905,-1.462751,13.484055300266666,0.0,True
2020-01-08 10:16:53.800,0.220520054272,0.06525015296,0.024979867648,-8.2545002752,-31.9645004032,34.4265001984,52.553905,-1.462751,13.112916529777777,0.0,True
2020-01-08 10:16:53.900,0.225879715328,0.260839967744,-0.1152498483199999,-8.6860002816,-32.4339997184,34.7185001216,52.553905,-1.462751,12.906944341333332,0.0,True
2020-01-08 10:16:54.000,-0.149709989376,0.262970191872,0.041619809792,-9.06,-32.0509999616,34.91750016,52.553905,-1.462751,12.739999872,0.0,True
2020-01-08 10:16:54.100,-0.1002448491519999,0.404459516416,-0.1435297121279999,-9.0885001216,-31.96249984,35.157000115200006,52.553905,-1.462751,12.48495797048889,0.0,True
2020-01-08 10:16:54.200,0.1053050222079999,-0.178414746624,0.199439832064,-9.2965001984,-31.8340003584,35.245499724800005,52.553905,-1.462751,11.982805469155554,0.0,True
2020-01-08 10:16:54.300,0.0879513455506453,0.1360696172156009,-0.0028575006658581,-9.635757850015128,-32.21606026598124,34.889090942001815,52.553905,-1.462751,11.843055465050565,0.0,True
2020-01-08 10:16:54.400,-0.1354930446530184,0.0343713008610223,0.0931811753702497,-10.050495043482009,-31.69,34.97960398549163,52.553905,-1.462751,11.634936700509945,0.0,True
2020-01-08 10:16:54.500,0.03834985984,0.1634050593279999,-0.028985065216,-9.9714998784,-31.6419997952,35.2080000768,52.553905,-1.462751,11.220555331555556,0.0,True
2020-01-08 10:16:54.600,-0.1689650903039999,0.232434958336,-0.0807398512639999,-9.77249984,-31.4555003648,35.188499481600005,52.553905,-1.462751,10.851055248355555,0.0,True
2020-01-08 10:16:54.700,-0.204704640768,0.155304907008,0.116514998784,-9.7475008,-31.86499968,34.6695007232,52.553905,-1.462751,10.388430322488889,0.0,True
2020-01-08 10:16:54.800,0.280485034496,0.00659989248,0.105809961216,-10.81,-31.3364995584,35.5729997568,52.553905,-1.462751,10.016513622755555,216.9602554453207,True
2020-01-08 10:16:54.900,0.2400496319999999,-0.041744596992,0.0050847900159999,-10.81,-30.9375008,35.32500032,52.553781249472,-1.46290415065344,9.626430399288889,216.96079792779904,True
2020-01-08 10:16:55.000,-0.2328666093468384,0.486363610528575,-0.2512544638354981,-10.932727717024507,-31.92424214998488,35.69393919098881,52.55308,-1.463772,9.379494806881024,0.0,True
2020-01-08 10:16:55.100,-0.1226079071099609,0.3989861085694153,-0.0873128474061607,-11.570891057990371,-31.47940592754435,35.38,52.55308,-1.463772,9.133718355887538,0.0,True
2020-01-08 10:16:55.200,-0.03709707539583,0.170327356814638,0.0860514179546389,-11.319090942001816,-31.418485024009684,35.30424214998487,52.55308,-1.463772,8.988173357858749,0.0,True
2020-01-08 10:16:55.300,-0.1898277159462754,0.2465068965429839,-0.0566643515972128,-11.281287072498738,-31.72960398549164,35.01782186951089,52.55308,-1.463772,8.898666101861027,0.0,True
2020-01-08 10:16:55.400,-0.0954483503525815,-0.0165726431853619,-0.0547213519377118,-10.819090942001816,-31.806666183973377,35.67424214998487,52.55308,-1.463772,8.779082506361927,0.0,True
2020-01-08 10:16:55.500,0.1045207869597066,0.1088425713061838,-0.2367346317526379,-10.692574144997478,-31.020396014508364,35.33871292750126,52.55308,-1.463772,8.790239266510252,0.0,True
2020-01-08 10:16:55.600,0.0662818351309348,0.0826606008497125,-0.0586242566307835,-9.834848792016942,-30.85696986700938,35.82969704100393,52.55308,-1.463772,8.727297977055404,0.0,True
2020-01-08 10:16:55.700,0.0851495002927526,0.0867980275314233,-0.1147386354937888,-10.20069300004309,-31.070891057990373,35.76098998557781,52.55308,-1.463772,8.714474692032368,0.0,True
2020-01-08 10:16:55.800,0.01782487936,0.138594944512,-0.2653498688,-9.5359996416,-30.9045004032,34.725999641600005,52.55308,-1.463772,8.664722204444445,0.0,True
2020-01-08 10:16:55.900,-0.1167180888448718,0.0922334322854579,-0.1246758791267044,-9.182727717024507,-31.45818188400364,34.27878798300575,52.55308,-1.463772,8.620193526968047,0.0,True
2020-01-08 10:16:56.000,0.0354168369532432,0.1848643181397659,-0.2820148320410817,-9.662475116023836,-31.56,34.459009913035985,52.55308,-1.463772,8.515552813199582,0.0,True
2020-01-08 10:16:56.100,0.086980031488,-0.1097698872319999,-0.1143799802879999,-8.6545004032,-31.56,34.5705000448,52.55308,-1.463772,8.570236061155555,0.0,True
2020-01-08 10:16:56.200,0.0980498688,-0.0278752896,-0.045809819136,-9.1239997184,-31.5795000832,34.6390000384,52.55308,-1.463772,8.496722191644444,0.0,True
2020-01-08 10:16:56.300,-0.08272502784,-0.38377487744,0.1677898864639999,-8.7304999168,-31.69,34.53999936,52.55308,-1.463772,8.44936108231111,0.0,True
2020-01-08 10:16:56.400,-0.1043880825889915,-0.2520099743493557,0.0307673593016536,-8.556138462786288,-31.65287119929436,33.67069302363306,52.55308,-1.463772,8.414823991181677,0.0,True
2020-01-08 10:16:56.500,-0.0208999663019968,-0.4156572536911069,0.1070428779662079,-8.028572693645966,-31.528570734459738,33.52428599416947,52.55308,-1.463772,8.4352381020797,0.0,True
2020-01-08 10:16:56.600,-0.0216861227634837,-0.3516475379627963,0.1030920868068668,-7.06,-31.97128707249874,33.251386101472384,52.55308,-1.463772,8.414158405803347,0.0,True
2020-01-08 10:16:56.700,0.108184987136,-0.477205063168,0.161174976,-6.9189993984,-31.5930003968,33.1185007616,52.55308,-1.463772,8.331958341688889,0.0,True
2020-01-08 10:16:56.800,0.052054833408,-0.51714981248,0.1248599810559999,-6.1485001216,-32.1109999616,33.9979994368,52.55308,-1.463772,8.333430514488889,0.0,True
2020-01-08 10:16:56.900,-0.145694899712,-0.307295167232,0.098934996736,-6.1419992832,-32.1065001984,33.2695000832,52.55308,-1.463772,8.272305527466667,0.0,True
2020-01-08 10:16:57.000,-0.013760005376,-0.474454765568,0.061464858624,-5.1704999168,-32.418000204799995,33.26749952,52.55308,-1.463772,8.22404161991111,0.0,True
2020-01-08 10:16:57.100,-0.0154399767039999,-0.197660147456,-0.093179858688,-4.98499968,-32.6239997184,32.7515005184,52.55308,-1.463772,8.162111111822222,0.0,True
2020-01-08 10:16:57.200,0.0063029970081635,-0.3424240575198012,0.0692574843749596,-4.341817391956433,-32.28787892500756,33.33545416697912,52.55308,-1.463772,8.167895640417633,0.0,True
