timestamp,gyro_x,gyro_y,gyro_z,mag_x,mag_y,mag_z,gps_lat,gps_lon,vehicle_speed,heading
2020-01-08T10:15:46.700000,-0.02157499648,0.043839998464,-0.01667499008,-1.1170002432000001,-32.13749952,31.66750016,52.554695,-1.463064,0.025500032,0.0
2020-01-08T10:15:46.800000,-0.010809974015999998,0.038919987712,-0.002359995136,-1.32749952,-31.5555002368,31.9445002752,52.554695,-1.463064,0.07295002111999999,0.0
2020-01-08T10:15:46.900000,0.018749978879999997,0.022539999744,-0.0038650339840000008,-0.7455002368,-31.8895000832,32.2829998848,52.554695,-1.463064,0.08794994431999989,0.0
2020-01-08T10:15:47.000000,-0.006527262689446342,0.022245454710009077,-0.04607574698941609,-1.0509090579981848,-31.97121201699425,32.13,52.554695,-1.463064,0.020060628001210095,0.0
2020-01-08T10:15:47.100000,0.008968316811606692,0.023656436376355724,-0.024678214639660762,-0.9603960145083656,-31.681683087007105,32.06029698553473,52.554695,-1.463064,0.052257424638368084,0.0
2020-01-08T10:15:47.200000,0.004554981888,0.026634986496,-0.00040001024000000003,-0.7965001984,-31.07500032,31.7365001984,52.554695,-1.463064,0.04630001408,0.0
2020-01-08T10:15:47.300000,-0.01649998913940096,0.008290907609918312,-0.012181811599636947,-1.06,-31.546969867009377,31.962121074992435,52.554695,-1.463064,0.05848482489869906,0.0
2020-01-08T10:15:47.400000,-9.902897364212453e-07,0.010752478258996126,-0.0024118814491129975,-1.0695049565179924,-31.67217813048911,31.77059407245565,52.554695,-1.463064,0.023108911593765744,0.0
2020-01-08T10:15:47.500000,-0.003039399150287418,0.035909090579981845,-0.008281831510735185,-1.0821210749924364,-31.1187885260357,31.889090942001815,52.554695,-1.463064,0.027333327299667115,0.0
2020-01-08T10:15:47.600000,-0.012684311737334291,0.027619617606754375,-0.02384902594632038,-0.87,-31.934902193063913,31.900784362937273,52.554695,-1.463064,0.02819606563630979,0.0
2020-01-08T10:15:47.700000,-0.022189891859184213,-0.008868725272679318,0.0030171737545187966,-0.9322217740058647,-31.027676136099174,31.646161931950413,52.554695,-1.463064,0.08045456379066918,0.0
2020-01-08T10:15:47.800000,-0.023414979584,0.018309977855999998,0.003070007552,-1.2544997632000001,-31.5690000384,31.45500032,52.554695,-1.463064,0.058549972480000004,0.0
2020-01-08T10:15:47.900000,0.0035960390945198226,-0.010877226631113904,0.010575235152624256,-0.9771288948143492,-31.630396090548018,31.83247501463763,52.554695,-1.463064,0.03001984127989942,0.0
2020-01-08T10:15:48.000000,0.004371439318936399,-0.005985685961553029,-0.006600021159156037,-1.1442853560354533,-31.698571495743355,31.47142787731869,52.554695,-1.463064,0.07642857478716762,0.0
2020-01-08T10:15:48.100000,0.012552475217410038,0.012214849276736174,-0.018902967827623178,-0.8303960145083656,-31.710396014508365,30.99861389852762,52.554695,-1.463064,0.06759405217840929,0.0
2020-01-08T10:15:48.200000,0.007979981568,0.001050031360000001,-0.0008550113280000001,-0.6395000832,-31.5555002368,31.42250048,52.554695,-1.463064,0.012400023039999914,0.0
2020-01-08T10:15:48.300000,-0.015929997568,0.036639974144,-0.013619990272000001,-0.7409999616,-31.8054997248,31.9669996032,52.554695,-1.463064,0.05170003711999998,0.0
2020-01-08T10:15:48.400000,-0.013124243960084712,0.008512143701240434,0.003087892500756363,-0.7278789250075636,-31.48696986700938,31.562727717024508,52.554695,-1.463064,0.10039393719987888,0.0
2020-01-08T10:15:48.500000,-0.014572,0.044916,0.012347999999999998,-0.9496,-31.7596,32.120400000000004,52.554695,-1.463064,0.09123999999999992,0.0
2020-01-08T10:15:48.600000,-0.007941583044171434,0.04598613391596605,-0.04697821565352279,-0.9794059275443501,-31.75138610147238,31.588910985448546,52.554695,-1.463064,0.06955446086619302,0.0
2020-01-08T10:15:48.700000,-0.002395016192,0.007320003072,-0.023339976704,-0.8985001216,-31.47750016,32.26749952,52.554695,-1.463064,0.11289999104,0.0
2020-01-08T10:15:48.800000,-0.0193999808,0.009479991808,0.00744999936,-1.0509999616,-31.6704999168,31.6570001152,52.554695,-1.463064,0.09289996543999991,0.0
2020-01-08T10:15:48.900000,0.006084999936,-0.0008899978239999999,0.007980005888,-1.0,-31.5509999616,31.8385001216,52.554695,-1.463064,0.05135001856,0.0
2020-01-08T10:15:49.000000,0.0016782075978627837,0.006811892571451745,0.012740586821854756,-1.0178218243387103,-31.425742398588707,31.934653310758062,52.554695,-1.463064,0.0700593918870966,0.0
2020-01-08T10:15:49.100000,-0.019762650303321798,0.028983877399034956,-0.0022687051029432297,-1.0846467193148497,-31.016969574728872,31.49919235722154,52.554695,-1.463064,0.04264641676880828,0.0
2020-01-08T10:15:49.200000,-0.003430016768,-0.0031499968,0.011179991808,-0.8144997632,-31.27000064,31.1945002752,52.554695,-1.463064,0.08345000192,0.0
2020-01-08T10:15:49.300000,-0.021679982848,0.0007399984640000001,8.999910399999997e-05,-0.5840003584,-32.08249984,31.5795000832,52.554695,-1.463064,0.07744996351999998,0.0
2020-01-08T10:15:49.400000,0.005221227040822923,0.0004424305503479269,-0.0005242403398850328,-1.0221210749924363,-31.794242149984875,31.727878925007566,52.554695,-1.463064,0.0283939371998789,0.0
2020-01-08T10:15:49.500000,0.02280296681376115,0.012322773622351603,-0.0033039642005317704,-0.8400990289736422,-31.38108911593766,31.930495043482008,52.554695,-1.463064,0.029594062317029587,0.0
2020-01-08T10:15:49.600000,-0.007195003392,0.020464986624,-0.026784964096,-0.92499968,-31.40249984,31.88,52.554695,-1.463064,0.04964998144,0.0
2020-01-08T10:15:49.700000,-0.011189997824,0.00975003008,0.018034987776,-0.6035004416,-31.2365001984,31.8694999552,52.554695,-1.463064,0.025,0.0
2020-01-08T10:15:49.800000,-0.009769702290293468,0.04747271920955526,-0.0007000090504992,-1.1793939009978822,-31.51818188400363,31.81,52.554695,-1.463064,0.03212123790142196,0.0
2020-01-08T10:15:49.900000,-0.017952475217410037,0.03168910681289937,-0.013844553913380696,-1.14059407245565,-31.600990086964018,31.781485130446022,52.554695,-1.463064,0.0674059376829704,0.0
2020-01-08T10:15:50.000000,-0.016004992768,0.01762501504,-0.011505009407999998,-1.1929997568,-31.4714998784,31.7605005568,52.554695,-1.463064,0.043,0.0
2020-01-08T10:15:50.100000,-0.0037599887360000002,0.032319977472,-0.021809990656,-0.87,-31.3190000384,32.42499968,52.554695,-1.463064,0.05170003711999998,0.0
2020-01-08T10:15:50.200000,0.007329983488,0.00300000256,-0.007254990848,-0.8609999616,-31.40750016,32.0285001216,52.554695,-1.463064,0.0939499699199999,0.0
2020-01-08T10:15:50.300000,-0.012448477059570386,0.004506053749621819,0.004672726449954618,-0.7630301329906212,-31.6775759660115,32.16121201699425,52.554695,-1.463064,0.055060609900211784,0.0
2020-01-08T10:15:50.400000,0.0032910914478203233,-0.0018702943494934496,0.0019108901455145474,-0.5586138985276189,-31.97940592754435,31.990495043482007,52.554695,-1.463064,0.05767326521870271,0.0
2020-01-08T10:15:50.500000,0.017364976384,0.021470003712,-0.006120000512,-0.8895000832,-31.8429998848,31.97750016,52.554695,-1.463064,0.04210000896,0.0
2020-01-08T10:15:50.600000,-0.010609985536,0.021419978752,-0.0019999795199999995,-0.9909999616,-31.6419997952,32.1990000384,52.554695,-1.463064,0.04754997248,0.0
2020-01-08T10:15:50.700000,0.005555430625223366,-0.0064732657256337265,0.019422743966887264,-0.9117820399410945,-31.463564814932163,32.195049235674766,52.554695,-1.463064,0.018425778962869836,0.0
2020-01-08T10:15:50.800000,-0.011518178574106782,0.00034953700231951396,-0.013063630956844634,-0.7061612436937414,-31.946262169689103,31.905454761726215,52.554695,-1.463064,0.061,0.0
2020-01-08T10:15:50.900000,-0.010115003903999999,0.02499997696,-0.007309991936,-0.5420004352000001,-31.62,31.9669996032,52.554695,-1.463064,0.057249984,0.0
2020-01-08T10:15:51.000000,-0.011830290469307171,0.004384884631993773,0.0012787801995764363,-1.0260602659812423,-31.582121074992436,31.53393973401876,52.554695,-1.463064,0.03978789250075636,0.0
2020-01-08T10:15:51.100000,0.008899010724125607,0.0469772192806142,-0.00823960246469859,-0.6093069999569108,-31.439703014465277,32.03148513044602,52.554695,-1.463064,0.059257424638368084,0.0
2020-01-08T10:15:51.200000,0.01287498752,-0.020409985536,0.003339995904,-1.26500032,-31.734999679999998,31.88,52.554695,-1.463064,0.04579998208,0.0
2020-01-08T10:15:51.300000,-0.005815009024,-0.0032100085759999997,0.004335027456,-1.61499968,-31.4045004032,31.91750016,52.554695,-1.463064,0.020799994879999985,0.0
2020-01-08T10:15:51.400000,-0.0155499904,-0.013909997056,0.033944970752,-1.1614998784,-31.9670001152,32.1480000768,52.554695,-1.463064,0.0162500095999999,0.0
2020-01-08T10:15:51.500000,-0.004615007744,-0.007344988672,-0.00399999616,-1.0660002816,-32.08249984,32.2590000384,52.554695,-1.463064,0.029450001919999916,0.0
2020-01-08T10:15:51.600000,-0.01354999424,0.009545007872,0.001009999616,-1.4294999552,-31.8985001216,32.263499801600005,52.554695,-1.463064,0.040700037120000004,0.0
2020-01-08T10:15:51.700000,-0.005329997568,0.021710007296,-0.00415001984,-1.3519999232000002,-31.9669996032,32.0570002432,52.554695,-1.463064,0.09,0.0
2020-01-08T10:15:51.800000,-0.0049950123519999995,0.027484983296,-0.025354978048,-1.25,-31.4865001984,32.41750016,52.554695,-1.463064,0.09105000447999999,0.0
2020-01-08T10:15:51.900000,-0.019329991168,0.007010007296,0.004310002176,-1.25,-31.6554995968,32.66750016,52.554695,-1.463064,0.09805000447999992,0.0
2020-01-08T10:15:52.000000,-0.00693333091986688,0.01800303502026019,0.004078776579376757,-1.2590909420018153,-31.157878925007566,32.860302958996066,52.554695,-1.463064,0.10248484299969746,0.0
2020-01-08T10:15:52.100000,-0.00304,0.021316,-0.00836,-1.19,-31.3012,32.71,52.554695,-1.463064,0.09336,0.0
2020-01-08T10:15:52.200000,-0.002881188550456111,0.0026653479701214864,0.013014848262874149,-0.6788119564749031,-30.88930689857071,32.53960398549163,52.554695,-1.463064,0.0803366275400412,0.0
2020-01-08T10:15:52.300000,-0.004084989696,0.011234985216,-0.011389988864,-1.2919999232000001,-30.5734998016,32.7214998784,52.554695,-1.463064,0.033800020479999915,0.0
2020-01-08T10:15:52.400000,0.006464986624,-0.008430000128,0.005230007807999999,-1.1794999552,-30.3670002432,32.6170002432,52.554695,-1.463064,0.05784998656,0.0
2020-01-08T10:15:52.500000,-0.011735001856,-0.0078499968,0.012944988671999998,-1.12,-30.7080000768,32.9955002368,52.554695,-1.463064,0.03939999744,0.0
2020-01-08T10:15:52.600000,-0.013989999104,-0.006480012288,0.0026550202880000003,-1.08249984,-30.81,33.27249984,52.554695,-1.463064,0.03930001407999998,0.0
2020-01-08T10:15:52.700000,-0.011194993152,-0.020444989952,0.025639983104,-0.9645004032,-30.7814998784,33.13500032,52.554695,-1.463064,0.05739999743999991,0.0
2020-01-08T10:15:52.800000,-0.004065008384,-0.009515010304,0.006620014592,-1.4159996416,-30.65750016,33.52249984,52.554695,-1.463064,0.054,0.0
2020-01-08T10:15:52.900000,-0.013124234909585513,-0.016548460768671825,0.019878765718777718,-0.9672728260054457,-30.88060609900212,33.29181811599637,52.554695,-1.463064,0.047484824898699055,0.0
2020-01-08T10:15:53.000000,-0.0015475247825899614,0.012002964786037091,-0.007461381741865658,-1.1104950434820078,-31.038217884019254,33.15990097102635,52.554695,-1.463064,0.012742575361631911,0.0
2020-01-08T10:15:53.100000,-0.001589999104,-0.022979952127999997,0.022469970432,-1.0044997632000001,-31.5419999232,32.9534998016,52.554695,-1.463064,0.025750016,0.0
2020-01-08T10:15:53.200000,-0.0006700011520000001,0.033639970304,-0.012434981376,-0.72750016,-31.40249984,32.61499968,52.554695,-1.463064,0.048650007039999985,0.0
2020-01-08T10:15:53.300000,-0.0024121219800423564,0.001624269301482473,0.0033908768382210335,-0.9960608090111941,-31.132424033988503,32.19909094200181,52.554695,-1.463064,0.06557578500151263,0.0
2020-01-08T10:15:53.400000,-0.002475246812037584,0.03931880942181983,-0.038103955075773514,-1.2608910579903734,-30.870198057947285,32.299108942009624,52.554695,-1.463064,0.09548514058464352,0.0
2020-01-08T10:15:53.500000,0.0038181829700635345,0.02594245046144617,0.0011666473589350404,-1.0,-31.199090942001817,32.597878925007564,52.554695,-1.463064,0.0300606099002117,0.0
2020-01-08T10:15:53.600000,0.006201980579472842,0.06591386101472381,-0.03247029941880359,-0.9508910579903733,-31.240495043482007,32.672178130489115,52.554695,-1.463064,0.03996039854916343,0.0
2020-01-08T10:15:53.700000,0.007430295899606691,0.04892116187722868,-0.043575725268218006,-0.7460608090111941,-31.21727282600545,31.996060809011194,52.554695,-1.463064,0.058272717399455415,0.0
2020-01-08T10:15:53.800000,-0.0022376228990877776,-0.02385742261064403,0.004403959131221628,-1.0108910579903734,-31.439703014465277,32.32108911593766,52.554695,-1.463064,0.04410891159376576,0.0
2020-01-08T10:15:53.900000,0.001654985728,0.003480004608,-0.006515001344,-0.7214998784,-31.7919999232,32.38,52.554695,-1.463064,0.046249984,0.0
2020-01-08T10:15:54.000000,-0.012829980928,0.01770003456,-0.013910023936,-0.6170002432,-31.65249984,32.41750016,52.554695,-1.463064,0.029950021119999986,0.0
2020-01-08T10:15:54.100000,0.011389995264,0.052334951936000004,-0.036654961407999995,-0.97750016,-31.36499968,32.7140003584,52.554695,-1.463064,0.055299988479999916,0.0
2020-01-08T10:15:54.200000,0.0026999897600000003,-0.007104981248,0.00964997888,-1.1044996352,-30.816999475200003,33.30250048,52.554695,-1.463064,0.041500006400000004,0.0
2020-01-08T10:15:54.300000,-0.010359997696,0.009159963136,-0.013359978496,-0.65750016,-30.214500403200002,33.8829997568,52.554695,-1.463064,0.04684998655999999,0.0
2020-01-08T10:15:54.400000,-0.00647499648,-0.03664998656,0.01242498816,-0.9180002048,-30.7965001984,33.59750016,52.554695,-1.463064,0.0289999999999999,0.0
2020-01-08T10:15:54.500000,-0.005646553502766575,-0.022705959734469535,-0.0029584141677079876,-1.0875242503123963,-30.9857422103713,33.71792034086042,52.554695,-1.463064,0.027960390945198137,0.0
2020-01-08T10:15:54.600000,-0.022614245858944185,-0.04221426309973799,-0.00185714957433525,-0.5442860613406546,-30.640000626937955,33.11857086880539,52.554695,-1.463064,0.025571456559730206,0.0
2020-01-08T10:15:54.700000,0.007804950434820078,-0.02770396217280771,-0.007744554927242726,-0.7402969855347236,-31.13108911593766,32.69,52.554695,-1.463064,0.04636633623213385,0.0
2020-01-08T10:15:54.800000,0.003999985920000001,-0.043875005439999996,-0.00742498176,-0.3609999616,-31.1794999552,32.6239997184,52.554695,-1.463064,0.03759997695999998,0.0
2020-01-08T10:15:54.900000,-0.010484982016,-0.052390005504,0.016469998592,-0.26349980159999997,-31.1305000448,32.1089993984,52.554695,-1.463064,0.011950021119999914,0.0
2020-01-08T10:15:55.000000,0.00867497984,-0.062565012224,0.013894996992000001,0.03750016,-31.22750016,31.2454997248,52.554695,-1.463064,0.03939999744,0.0
2020-01-08T10:15:55.100000,-0.016630297709706532,-0.07479998551920128,0.009475756039915288,0.2696970410039331,-31.524848792016943,30.973939734018757,52.554695,-1.463064,0.04312123790142196,0.0
2020-01-08T10:15:55.200000,-0.009519999999999999,-0.054400000000000004,0.006204,0.43920000000000003,-31.8704,31.2504,52.554695,-1.463064,0.07612000000000001,0.0
2020-01-08T10:15:55.300000,-0.01573267347812973,-0.06798911086834748,0.0026881195647490315,0.889406028930553,-31.178910884062343,30.07782186951089,52.554695,-1.463064,0.04047524782589961,0.0
2020-01-08T10:15:55.400000,-0.012369978112000002,-0.078579975168,0.008459997696,1.5354995967999998,-31.1109999616,30.8009999616,52.554695,-1.463064,0.04254999808,0.0
2020-01-08T10:15:55.500000,0.013084984575999999,-0.04987501824,0.005640001024,1.0,-31.13500032,30.8445004032,52.554695,-1.463064,0.03834999295999999,0.0
2020-01-08T10:15:55.600000,-0.007670001152,-0.069359979776,0.007510002176,1.07500032,-31.475999641599998,31.2014992384,52.554695,-1.463064,0.04790008063999991,0.0
2020-01-08T10:15:55.700000,-0.007339992064,-0.042304999168000006,0.012305008127999999,1.4909999616,-31.1305005568,30.11499968,52.554695,-1.463064,0.16415003904,0.0
2020-01-08T10:15:55.800000,4.9986559999999625e-05,-0.040794998272,0.018614980864,1.4955002367999999,-31.8609999616,29.7365001984,52.554695,-1.463064,0.22080002048,0.0
2020-01-08T10:15:55.900000,-0.018235001856,-0.036279990528,-0.005209993216,1.7634998016,-31.8670002432,29.9714998784,52.554695,-1.463064,0.26855008768,0.0
2020-01-08T10:15:56.000000,-0.018434990336,-0.021179989248,0.004355002368,1.5,-32.15249984,29.84750016,52.554695,-1.463064,0.4082500992,0.0
2020-01-08T10:15:56.100000,-0.003829992448,-0.007845004031999999,0.006629996288,1.53750016,-31.9580000768,30.02249984,52.554695,-1.463064,0.5383499929600001,0.0
2020-01-08T10:15:56.200000,0.004836358699727709,-0.012018177539764014,-0.0005121292204417164,1.75,-32.07969704100393,29.74484824898699,52.554695,-1.463064,0.5562728260054458,0.0
2020-01-08T10:15:56.300000,-0.003568,-0.005464,-0.008660000000000001,1.7804,-32.1692,29.3688,52.554695,-1.463064,0.7187600000000001,0.0
2020-01-08T10:15:56.400000,-0.005223760870501937,-0.004611880435250969,0.0075168278284849606,1.9304950434820076,-32.001386101472384,29.191188043525095,52.554695,-1.463064,0.7734851507232638,0.0
2020-01-08T10:15:56.500000,0.00432498688,-0.00031000857600000016,-0.023104992767999998,1.8604999167999998,-31.765000320000002,28.5885001216,52.554695,-1.463064,0.8524502579200001,0.0
2020-01-08T10:15:56.600000,-0.01370000256,-0.010004992768000001,-0.009704983808,1.7590000384,-32.057999436799996,28.7034998016,52.554695,-1.463064,1.20535004416,0.0
2020-01-08T10:15:56.700000,-0.016664998144,-0.004465017344,0.011424998399999999,1.84750016,-31.38500032,28.36499968,52.554695,-1.463064,1.26505000448,0.0
2020-01-08T10:15:56.800000,-0.012760600849712582,-0.023409076099183128,0.007830297709706531,2.0887879830057483,-31.829697041003932,28.015757850015127,52.554695,-1.463064,1.3119092390081686,0.0
2020-01-08T10:15:56.900000,-0.0041138610147238115,-0.003367328549594328,0.003005942752280556,2.2103960145083654,-31.968514869553978,28.311683087007104,52.554695,-1.463064,1.5756930912906717,0.0
2020-01-08T10:15:57.000000,-0.0017121237901421963,-0.01673635688962787,0.015887859918959246,2.0575759660114965,-32.00636322497731,27.657272826005446,52.554695,-1.463064,1.7709091304021785,0.0
2020-01-08T10:15:57.100000,-0.005541584058033463,-0.0035277210155855937,-0.011446533478991511,2.329306898570708,-31.360495043482008,27.75138610147238,52.554695,-1.463064,1.8161584058033462,0.0
2020-01-08T10:15:57.200000,-0.00635000704,0.008874990079999999,-0.002005001728,2.0419999232,-31.4315005184,27.40249984,52.554695,-1.463064,1.78705023488,0.0
2020-01-08T10:15:57.300000,-0.013464990464,-0.0022149911040000004,-0.007360013056,2.0615005184,-32.1109999616,27.1990000384,52.554695,-1.463064,2.10755003648,0.0
2020-01-08T10:15:57.400000,-0.0010100008960000002,0.008639995903999999,-0.02192498816,2.6944997632,-32.013499801600005,27.2590000384,52.554695,-1.463064,2.14954997248,0.0
2020-01-08T10:15:57.500000,-0.0018249984000000001,0.008360022016,-0.008300008959999999,2.4070001152,-31.82500032,27.2919999232,52.554695,-1.463064,2.1302500736,0.0
2020-01-08T10:15:57.600000,0.001230003968,0.035304990208,-0.021520005632,2.4954997248,-32.2409999616,27.274000358400002,52.554695,-1.463064,2.20969992192,0.0
2020-01-08T10:15:57.700000,0.004669992192,0.022194999552,-0.028744998912,2.1855002368,-32.15249984,27.7319999232,52.554695,-1.463064,2.0606998067199997,0.0
2020-01-08T10:15:57.800000,-0.00329998976,0.020984997376,-0.026504996608,2.5090000384,-31.9204999168,27.63,52.554695,-1.463064,1.8325001216,0.0
2020-01-08T10:15:57.900000,0.007179986688,0.016989997824,-0.022270001152,2.4759996416,-31.7634998016,27.572999756799998,52.554695,-1.463064,1.97029989888,0.0
2020-01-08T10:15:58.000000,-0.009764996864,0.013379996928,-0.022764995584,1.9909999616,-31.5,27.2319999232,52.554695,-1.463064,1.8029998592,0.0
2020-01-08T10:15:58.100000,-0.005194998272,0.005699984639999999,-0.014499989759999998,1.8934998016,-31.6305005568,27.13,52.554695,-1.463064,1.6128499865600001,0.0
2020-01-08T10:15:58.200000,-0.002915000064,-0.01567500416,-0.001110000896,1.70500032,-32.2859996416,27.09249984,52.554695,-1.463064,1.56634987776,0.0
2020-01-08T10:15:58.300000,-0.000359988736,-0.020029995008,-0.003065003264,2.1480000768,-31.7634998016,26.8980000768,52.554695,-1.463064,1.40339999744,0.0
2020-01-08T10:15:58.400000,0.01429999872,-0.017945019392,-0.005434991616,2.1089993984,-31.61250048,26.9534998016,52.554695,-1.463064,1.40705003008,0.0
2020-01-08T10:15:58.500000,0.011759996416,-0.036049967360000004,0.002744987392,1.2829998848,-32.2034998016,26.72750016,52.554695,-1.463064,1.39464977664,0.0
2020-01-08T10:15:58.600000,0.0038799866880000005,0.003999985920000001,-0.011194988032,1.1480000767999998,-31.8919997952,26.9580000768,52.554695,-1.463064,1.09634999296,0.0
2020-01-08T10:15:58.700000,-0.013004996608,-0.012659991296,0.004639999744,1.2409999616,-31.686000281600002,27.0795000832,52.554695,-1.463064,1.1177501312,0.0
2020-01-08T10:15:58.800000,-0.0065349916160000006,-0.0024650058240000003,-0.0021800276479999993,1.1239997184,-31.98499968,27.1434998016,52.554695,-1.463064,1.2574998527999999,0.0
2020-01-08T10:15:58.900000,0.004254998528,-0.009044995072,-0.03807499648,0.6839997184,-31.6260002816,26.9265001984,52.554695,-1.463064,1.04204991488,0.0
2020-01-08T10:15:59.000000,0.004835010815999999,-0.00295000192,-0.02979998464,0.3295000832,-31.9429997568,27.0579994368,52.554695,-1.463064,0.929,0.0
2020-01-08T10:15:59.100000,0.01717499136,-0.003939993344,-0.0124000128,0.3934998016,-31.6485001216,26.3205000448,52.554695,-1.463064,0.91759995136,0.0
2020-01-08T10:15:59.200000,0.0018299834880000005,0.00625000576,-0.0252749824,0.035499596800000005,-31.81,26.3694999552,52.554695,-1.463064,0.87085007616,0.0
2020-01-08T10:15:59.300000,-0.01919999616,0.01299999616,-0.007705024768,-0.42499968,-31.743999718399998,26.4135004416,52.554695,-1.463064,0.9763500185599999,0.0
2020-01-08T10:15:59.400000,-0.011984990976,0.005574990080000001,-0.034344973311999996,-0.0180000768,-31.5395007232,26.96249984,52.554695,-1.463064,0.9976999859199999,0.0
2020-01-08T10:15:59.500000,0.004395018752,-0.011545016832,4.995328000000033e-06,-0.1109999616,-32.5285001216,26.7409999616,52.554695,-1.463064,0.98335001856,0.0
2020-01-08T10:15:59.600000,0.029585001216,-0.034170001152,-0.008345009152,-0.13500032,-32.5294993152,26.61499968,52.554695,-1.463064,1.008,0.0
2020-01-08T10:15:59.700000,0.027269983232,-0.03299998848,-0.017154985728,-0.5885001216000001,-31.5929998848,26.2365001984,52.554695,-1.463064,1.0410001408,0.0
2020-01-08T10:15:59.800000,0.004189996544,-0.02287502208,-0.0004650096640000001,-0.6554995968,-31.4490000384,26.4909999616,52.554695,-1.463064,1.2257499904,0.0
2020-01-08T10:15:59.900000,-0.006415025664000001,-0.053985007616,-0.010779989248,-0.1680002048,-31.5090000384,26.4685001216,52.554695,-1.463064,1.2092499840000002,0.0
2020-01-08T10:16:00.000000,-0.034139972864,-0.059239979264,0.001444991232,-0.5045002752,-31.6440003584,26.70500032,52.554695,-1.463064,1.2360002048,0.0
2020-01-08T10:16:00.100000,0.0015515138899304145,-0.0393818459915339,-0.007821203509525004,-0.7184842999697455,-32.063939190988805,27.081514975990316,52.554695,-1.463064,1.5130000181009984,0.0
2020-01-08T10:16:00.200000,-0.0018257434776988376,-0.07912079000129267,0.00537326724642677,0.13,-31.819703014465276,26.821089115937657,52.554695,-1.463064,1.5300693000043089,0.0
2020-01-08T10:16:00.300000,-0.01030000384,-0.069755034368,0.006740008704000001,0.21400035839999998,-32.15249984,26.8514998784,52.554695,-1.463064,1.49090008064,0.0
2020-01-08T10:16:00.400000,-0.015021210749924364,-0.11574848611006959,0.019618186590263216,0.6809090579981847,-31.902121074992436,26.746060809011194,52.554695,-1.463064,1.5969393900997884,0.0
2020-01-08T10:16:00.500000,-0.008781185508870025,-0.11564059275443501,0.022532670436543643,0.579306898570708,-31.65990097102636,27.020396014508364,52.554695,-1.463064,1.618405957960211,0.0
2020-01-08T10:16:00.600000,0.010009986816,-0.107880013568,0.0028500172800000004,0.3580002048,-31.5180000768,26.725999641599998,52.554695,-1.463064,1.78935010816,0.0
2020-01-08T10:16:00.700000,-0.0037499839999999996,-0.12391999155200001,0.022019983872,0.7605005568000001,-31.668000204800002,26.3340003584,52.554695,-1.463064,1.9140999193600001,0.0
2020-01-08T10:16:00.800000,0.016269994752,-0.114185006336,0.0051000192,1.3784994816,-31.9114998784,26.7829998848,52.554695,-1.463064,1.83460011776,0.0
2020-01-08T10:16:00.900000,0.007694993151999999,-0.118489982464,0.028244989951999998,0.7080000768,-31.7409999616,26.6480000768,52.554695,-1.463064,1.9953500185600002,0.0
2020-01-08T10:16:01.000000,-0.0027200056320000002,-0.0982000128,0.009079975168,0.8580002048,-31.69,26.7319999232,52.554695,-1.463064,2.0507501312,0.0
2020-01-08T10:16:01.100000,-0.012555010048,-0.112409988096,-0.020719986432,1.2140003583999999,-31.765000320000002,26.6104999168,52.554695,-1.463064,2.19094985472,0.0
2020-01-08T10:16:01.200000,-0.024009991936,-0.094334990336,-0.007110018815999999,1.5684994816,-32.1044996352,26.5660002816,52.554695,-1.463064,2.06490028544,0.0
2020-01-08T10:16:01.300000,-0.014545005312,-0.086210020096,-0.030869994752,0.99250048,-31.65750016,26.9685001216,52.554695,-1.463064,2.3862497536,0.0
2020-01-08T10:16:01.400000,-0.018434986496000002,-0.107154975488,-0.024605003008,1.6014998783999999,-31.83249984,27.063999718399998,52.554695,-1.463064,2.12755029248,0.0
2020-01-08T10:16:01.500000,-0.0017750054399999998,-0.08555004672,-0.026259990016,1.40249984,-31.6109999616,26.61499968,52.554695,-1.463064,2.5024999424,0.0
2020-01-08T10:16:01.600000,-0.009285001216,-0.141644974592,-0.008799982080000001,1.2080000767999999,-31.6545004032,26.1329997568,52.554695,-1.463064,2.44385007616,0.0
2020-01-08T10:16:01.700000,-0.010284997375999999,-0.12294506419199999,0.019065017344,1.3295000832000001,-32.349000678399996,25.8009999616,52.554695,-1.463064,2.5510000256,0.0
2020-01-08T10:16:01.800000,-0.005659995136,-0.204269983232,0.039939990784,1.5060002816,-33.1179994368,25.7319999232,52.554695,-1.463064,2.5827499904,0.0
2020-01-08T10:16:01.900000,-0.000820006912,-0.183905008128,0.02897500544,1.99250048,-32.342999884799994,25.581999795199998,52.554695,-1.463064,2.5797500415999997,0.0
2020-01-08T10:16:02.000000,-0.0066249856,-0.19590000512,0.030874977280000004,2.5639997184,-32.2455002368,25.27249984,52.554695,-1.463064,2.6399500211199998,0.0
2020-01-08T10:16:02.100000,0.00746967875899555,-0.1984272572591468,0.003593949870577862,2.1521210749924364,-32.56,24.928181340973676,52.554695,-1.463064,2.6728485024009685,0.0
2020-01-08T10:16:02.200000,-0.016945542175393062,-0.1779534675348705,0.01921386101472381,1.9590099130359844,-32.58059407245565,24.34841594196654,52.554695,-1.463064,2.7,0.0
2020-01-08T10:16:02.300000,-0.0020151696710014244,-0.18995149216873233,0.014039386479588538,2.2221217990323723,-32.64151497599032,24.953635507952804,52.554695,-1.463064,2.713030350202602,0.0
2020-01-08T10:16:02.400000,-0.026227999999999998,-0.154944,-0.0002360000000000001,3.2196,-32.4708,23.59,52.554695,-1.463064,2.80616,0.0
2020-01-08T10:16:02.500000,-0.006834654057602571,-0.15959010014422187,-0.010988116523162946,3.7090099130359846,-33.00950495651799,23.408514869553976,52.554695,-1.463064,2.892039591312216,0.0
2020-01-08T10:16:02.600000,-0.010884996096,-0.16519998336,0.006549992960000001,3.7079995648,-33.0419999232,23.6545004032,52.554695,-1.463064,2.8115001088000002,0.0
2020-01-08T10:16:02.700000,-0.006195002112,-0.143445001472,-0.0009249919999999999,3.2230003968,-32.9490000384,24.1059996416,52.554695,-1.463064,2.94129993728,0.0
2020-01-08T10:16:02.800000,-0.006689990143999999,-0.137239965184,0.00512498048,3.6284994816,-32.8679994368,23.7515005184,52.554695,-1.463064,2.86880004608,0.0
2020-01-08T10:16:02.900000,0.0045666600296339205,-0.10415156276262609,-0.01866362862957341,3.0718186590263215,-32.14878798300575,24.37333309198669,52.554695,-1.463064,2.9431818659026323,0.0
2020-01-08T10:16:03.000000,-0.0032920776821086305,-0.16493662551231716,-0.008410892173238605,3.81,-32.34009902897365,23.950891057990372,52.554695,-1.463064,3.023178221736695,0.0
2020-01-08T10:16:03.100000,0.0024049697279999996,-0.11152506368000001,-0.010059968256000001,3.7259996416,-32.38749952,23.6059996416,52.554695,-1.463064,3.01819983872,0.0
2020-01-08T10:16:03.200000,-0.036254993408,-0.185284953856,0.023744964351999995,3.2785001216,-31.7304999168,23.063999718399998,52.554695,-1.463064,2.8613002444799998,0.0
2020-01-08T10:16:03.300000,-0.028205003008,-0.1405000704,-0.009814941184,3.4114998784,-31.677000243200002,22.783000396800002,52.554695,-1.463064,3.1460998297600002,0.0
2020-01-08T10:16:03.400000,-0.02647270653885638,-0.22921210387904398,0.05898178444813935,3.2878789250075635,-32.02878798300575,23.10242349095855,52.554695,-1.463064,2.9374243055034794,0.0
2020-01-08T10:16:03.500000,-0.0026039318637576326,-0.216580409951887,0.015866678044458724,3.539215735486413,-32.16960781754706,21.99803928851989,52.554695,-1.463064,2.9965685792233154,0.0
2020-01-08T10:16:03.600000,-0.042146425957866045,-0.2861534788825995,0.06051309658951332,3.679292328538293,-32.13919259203711,22.195453572232033,52.554695,-1.463064,2.8058385184074224,0.0
2020-01-08T10:16:03.700000,-0.01836365035077149,-0.2530424504614462,0.03413938828968838,3.2878789250075635,-32.65787892500756,21.5575759660115,52.554695,-1.463064,2.9129091304021784,0.0
2020-01-08T10:16:03.800000,-0.03703762188522575,-0.2717544416028145,0.01450098319270222,3.52059407245565,-32.85099008696401,21.365148188608753,52.554695,-1.463064,2.957366326093514,0.0
2020-01-08T10:16:03.900000,-0.017969985792,-0.156465003264,-0.040489987584,3.70500032,-32.86250048,18.4319991552,52.554695,-1.463064,2.87395002112,0.0
2020-01-08T10:16:04.000000,-0.00966064429210874,-0.17028488282189394,-0.01746967332869603,4.261818659026321,-33.57575785001513,17.320606099002116,52.554695,-1.463064,2.8942726992984573,0.0
2020-01-08T10:16:04.100000,-0.06552079000129267,-0.2193920766682466,0.009832667394957556,4.901782115980747,-33.950891057990376,17.329306898570707,52.554695,-1.463064,2.8510000000000004,0.0
2020-01-08T10:16:04.200000,-0.040809968896,-0.213235064576,-0.027519949311999997,4.4070001152,-33.80250048,16.90999936,52.554695,-1.463064,2.8753001036800003,0.0
2020-01-08T10:16:04.300000,0.000545000192,-0.284434937856,0.034729978368,4.48499968,-34.4114998784,16.1260002816,52.554695,-1.463064,2.9612497792,0.0
2020-01-08T10:16:04.400000,0.002960009216,-0.212520045312,0.003779990528,4.004499763199999,-34.2590000384,16.42499968,52.554695,-1.463064,2.6857000755200002,0.0
2020-01-08T10:16:04.500000,0.01692500736,-0.261044950272,0.004580057088,3.76500032,-34.206499558400004,16.0090000384,52.554695,-1.463064,2.77144993792,0.0
2020-01-08T10:16:04.600000,0.02384998784,-0.192209988096,0.070814959104,4.1809999616,-33.73250048,15.98499968,52.554695,-1.463064,2.71660011776,0.0
2020-01-08T10:16:04.700000,0.005194989312,-0.176880002048,0.01927501184,4.0729997568,-34.3054997248,15.438499481600001,52.554695,-1.463064,2.8248497945600004,0.0
2020-01-08T10:16:04.800000,-0.008279996928,-0.16812495104,0.034114996224,3.9285007616,-33.8919997952,14.90000064,52.554695,-1.463064,2.58665014784,0.0
2020-01-08T10:16:04.900000,-0.007320013312000001,-0.114965050624,0.026594989312,4.827499520000001,-33.65750016,15.7034998016,52.554695,-1.463064,2.77114994944,0.0
2020-01-08T10:16:05.000000,-0.026140004864,-0.16779993856,0.009969989632,4.1990000384,-33.880500044799994,15.3079994368,52.554695,-1.463064,2.6796998963200003,0.0
2020-01-08T10:16:05.100000,-0.03328182065013614,-0.09745761651224791,0.005306093571818297,4.1560602659812425,-33.98696986700938,14.370605374962182,52.554695,-1.463064,2.58396984890838,0.0
2020-01-08T10:16:05.200000,-0.028909895800330012,-0.14332771189082735,0.043056427251597466,3.6696039854916345,-34.25,13.379703014465276,52.554695,-1.463064,2.8093366275400413,0.0
2020-01-08T10:16:05.300000,0.011944988672000001,-0.057920024832,-0.01762495872,3.8229997568,-34.2304999168,13.6944997632,52.554695,-1.463064,2.73204988928,0.0
2020-01-08T10:16:05.400000,-0.0012138569241531738,-0.08390493394705625,0.030620776514959494,3.471782111463709,-34.04574239858871,13.35178211146371,52.554695,-1.463064,2.6133664037391138,0.0
2020-01-08T10:16:05.500000,0.015850460025134593,-0.04201819465346842,-0.009504023086590228,3.4160598420554513,-33.6907065613703,13.252221774005864,52.554695,-1.463064,2.784060547996214,0.0
2020-01-08T10:16:05.600000,0.044484960256,-0.023204965887999997,-0.027385014016,3.9849996799999996,-34.092999884799994,13.581999795200002,52.554695,-1.463064,2.8163499289600002,0.0
2020-01-08T10:16:05.700000,-0.007429996288,0.020869994752,-0.042504985088,3.6455003648,-33.9580000768,13.4135004416,52.554695,-1.463064,2.74735010816,0.0
2020-01-08T10:16:05.800000,-0.002980002048,0.014995004672,-0.023060001536,4.1570001152,-34.02249984,14.0660002816,52.554695,-1.463064,2.87794994432,0.0
2020-01-08T10:16:05.900000,-0.008205010688,0.024515014144,-0.025820003072,4.245499724799999,-33.77249984,14.4865001984,52.554695,-1.463064,2.86340025344,0.0
2020-01-08T10:16:06.000000,-0.017490891319019753,0.036421187218626444,-0.026233320059267838,3.9178789250075634,-33.49333309198669,15.090910325068073,52.554695,-1.463064,3.1875757125975195,0.0
2020-01-08T10:16:06.100000,0.00961980173928031,0.004569311156791229,-0.008377229419234484,4.139504956517992,-33.04079202901673,16.862178130489113,52.554695,-1.463064,3.1493663565093746,0.0
2020-01-08T10:16:06.200000,0.009070006272000001,0.03639998464,-0.018954984448,4.1059996416,-32.723500441599995,16.1855002368,52.554695,-1.463064,3.35110014976,0.0
2020-01-08T10:16:06.300000,0.018105003007999998,0.014619994112,-0.0012250124800000002,3.5819997952,-33.3385001216,16.2839990784,52.554695,-1.463064,3.60010021376,0.0
2020-01-08T10:16:06.400000,0.021919999232,0.007145001472,-0.013734982656,3.38500032,-33.4714998784,15.247500800000001,52.554695,-1.463064,3.8824999935999998,0.0
2020-01-08T10:16:06.500000,0.022040004864,0.0063249881599999995,0.0096750016,3.77249984,-33.188499481600005,16.2919999232,52.554695,-1.463064,3.8409998592,0.0
2020-01-08T10:16:06.600000,0.02343202036068638,-0.016390316743880858,0.018804879903763942,3.523592100292287,-32.590291591275125,16.21767000377786,52.554695,-1.463064,3.6770097926152743,0.0
2020-01-08T10:16:06.700000,-0.016988666846130703,-0.06044330097702332,0.04824638406359361,3.3644330256052952,-33.128659799528116,16.240206093331853,52.554695,-1.463064,3.8111340200471884,0.0
2020-01-08T10:16:06.800000,-0.08797497984000001,-0.09002503424,-0.025899964159999997,3.5444991232,-33.095499596799996,15.1839997184,52.554695,-1.463064,3.7914999424,0.0
2020-01-08T10:16:06.900000,-0.055529975807999996,-0.13932501632,0.009729948928000002,2.49250048,-32.672500480000004,14.8580002048,52.554695,-1.463064,3.65454974208,0.0
2020-01-08T10:16:07.000000,-0.022364995584,-0.181940089344,-0.043129936128,3.01749952,-33.3565001984,15.0069994752,52.554695,-1.463064,3.32655006208,0.0
2020-01-08T10:16:07.100000,-0.020595017472000002,-0.301005001728,0.029204946688,2.4070001152,-33.6770002432,13.9634985216,52.554695,-1.463064,3.3890499148799997,0.0
2020-01-08T10:16:07.200000,-0.03917877114907724,-0.33570920823647143,-0.0315999637980032,2.6084850240096813,-34.06666690801331,11.886363224977309,52.554695,-1.463064,3.2411513889930412,0.0
2020-01-08T10:16:07.300000,-0.031612882891331726,-0.520542576375494,0.03523565043051116,2.8102969855347233,-34.47960398549163,11.032970159505844,52.554695,-1.463064,3.057405947821591,0.0
2020-01-08T10:16:07.400000,-0.13520002688,-0.53537498752,0.09400000512,2.44,-34.595499596799996,9.776499558400001,52.554695,-1.463064,3.11469998592,0.0
2020-01-08T10:16:07.500000,-0.1585249472,-0.49401989427200005,0.085634935296,2.5435004416,-34.13500032,9.143499801599999,52.554695,-1.463064,3.05879984128,0.0
2020-01-08T10:16:07.600000,-0.081634971136,-0.376670098432,0.014250062079999999,3.0819997952,-34.6440003584,8.6729991168,52.554695,-1.463064,2.81664986624,0.0
2020-01-08T10:16:07.700000,-0.043930002688,-0.49304493875199995,0.09540999449599999,2.4919986432,-35.1395000832,7.4714998783999995,52.554695,-1.463064,2.6221999283199997,0.0
2020-01-08T10:16:07.800000,-0.02943932855639366,-0.4353364492047197,0.08953939915028741,0.6809090579981847,-35.25909094200181,7.24484824898699,52.554695,-1.463064,2.4653331100876867,0.0
2020-01-08T10:16:07.900000,0.06620296681376114,-0.5554544476859866,0.09230890753831765,0.5397029130790736,-35.27990097102636,6.780197956561081,52.554695,-1.463064,2.101782166673848,0.0
2020-01-08T10:16:08.000000,0.02892421318838743,-0.4857484680090712,0.07050305312125858,0.15545489101906035,-35.16848502400968,6.0803024159661145,52.554695,-1.463064,1.9401512803870509,0.0
2020-01-08T10:16:08.100000,-0.012339601450836561,-0.47560496057344037,0.10508712826115059,0.4919800725418281,-35.34970291307907,4.9414850290598205,52.554695,-1.463064,1.5182276855304147,0.0
2020-01-08T10:16:08.200000,-0.005550060800000001,-0.51344980096,0.088414945024,-0.5795000832,-34.87,3.97750016,52.554695,-1.463064,1.17029984768,0.0
2020-01-08T10:16:08.300000,-0.084289991424,-0.259495044352,0.020080019968,-0.7365001983999999,-34.8519999232,4.1809999616,52.554695,-1.463064,0.87139958784,0.0
2020-01-08T10:16:08.400000,-0.075495011072,-0.31949500467200004,0.037539961344000006,-0.9714998784,-34.8055002368,3.9604992768,52.554695,-1.463064,0.27914980864,0.0
2020-01-08T10:16:08.500000,-0.0759499570824068,-0.291199896094248,0.00137651629613641,-0.9202944498265728,-35.08323518339114,2.8897055501734275,52.554695,-1.463064,0.09647080348761916,0.0
2020-01-08T10:16:08.600000,0.0034697149609923487,-0.12394123122991113,0.07643946612398149,-1.63353494397741,-34.91201996798709,2.3563630439673253,52.554695,-1.463064,0.5886056283761595,0.0
2020-01-08T10:16:08.700000,-0.0012144164759725386,-0.31887160355474753,-0.001114349863640637,-2.1828566502617472,-35.14428607253691,3.0428572772013416,52.554695,-1.463064,1.1985706717657754,0.0
2020-01-08T10:16:08.800000,0.07764714414749482,-0.19770001545662244,0.05569812250339321,-2.513207490665649,-35.00283034907815,2.864528210751047,52.554695,-1.463064,1.882452956320551,0.0
2020-01-08T10:16:08.900000,-0.03126829213083478,-0.2680368219372989,0.08372613057608046,-2.414212517583146,-35.63841969959094,2.393683648886805,52.554695,-1.463064,2.5938962392277967,0.0
2020-01-08T10:16:09.000000,0.029999875840000002,-0.259390023424,-0.023209902336,-3.81,-34.7455002368,1.92499968,52.554695,-1.463064,3.7874005990399997,0.0
2020-01-08T10:16:09.100000,-0.121069940992,-0.27303992550399997,0.090884933376,-3.73499968,-35.1065001984,1.5945004032,52.554695,-1.463064,4.76495077632,0.0
2020-01-08T10:16:09.200000,-0.038394981632,-0.199480108288,-0.0011850152960000003,-3.5170008832,-35.3519999232,1.9319991552,52.554695,-1.463064,5.938500608,0.0
2020-01-08T10:16:09.300000,-0.015140004864,-0.329364940544,-0.0207499968,-4.7170001152,-35.2965001984,0.7919999232,52.554695,-1.463064,6.85565046784,0.0
2020-01-08T10:16:09.400000,-0.025485016576,-0.253265012224,-0.014894993152000002,-4.8234998016,-35.59750016,0.7935004416,52.554695,-1.463064,7.630450654720001,0.0
2020-01-08T10:16:09.500000,-0.043794984192,-0.275260024576,0.00402504192,-4.6815005184,-35.84750016,1.3424998399999999,52.554695,-1.463064,8.63605058048,0.0
2020-01-08T10:16:09.600000,-0.04281008537600001,-0.287964914944,0.06285001344,-5.3324998400000005,-35.98499968,0.9604992767999999,52.554695,-1.463064,9.52745051392,0.0
2020-01-08T10:16:09.700000,-0.16013940820078662,-0.16674239434835111,0.0640938792766841,-5.215454891019061,-35.51303013299062,0.03787892500756363,52.554695,-1.463064,10.327273151823418,0.0
2020-01-08T10:16:09.800000,-0.16084553102291074,-0.1390980315868715,-0.020361380728003628,-5.769009913035984,-35.28960398549163,0.2309900869640155,52.554695,-1.463064,11.064950546344901,350.2428105165768
2020-01-08T10:16:09.900000,-0.042584979456,-0.228029957888,0.0182499712,-5.8805000448,-35.4054995968,0.026499558399999998,52.55470985006336,-1.46306820001792,11.60885048576,350.2428290993353
2020-01-08T10:16:10.000000,0.013380122368000002,-0.162184957696,-0.015859982336,-5.854499635200001,-35.0020005632,-0.49399971840000007,52.554794,-1.463092,12.34970040832,0.0
2020-01-08T10:16:10.100000,0.165534955776,-0.090714934784,0.0018849756159999998,-5.4555003648,-35.7680000768,-0.13950008319999999,52.554794,-1.463092,13.000000460799999,0.0
2020-01-08T10:16:10.200000,0.094469947392,-0.011420031232000001,-0.020509957375999997,-5.902499840000001,-35.739499443199996,-0.08049927680000002,52.554794,-1.463092,13.70485039616,0.0
2020-01-08T10:16:10.300000,0.027930014208000002,-0.044079962368000006,0.034989995264,-5.7740003584,-35.11250048,0.8229997568,52.554794,-1.463092,14.33945046272,0.0
2020-01-08T10:16:10.400000,0.011444849152000003,0.016355044608,0.015334942976,-6.1929997568,-35.7409999616,0.3964995584,52.554794,-1.463092,15.09335059456,0.0
2020-01-08T10:16:10.500000,-0.178789956864,0.071159981056,-0.05357497088,-5.8144997632,-35.69,-0.03999936000000001,52.554794,-1.463092,15.94195025152,0.0
2020-01-08T10:16:10.600000,-0.07095436246990708,0.07371222153553356,-0.049763762576961565,-5.433333091986688,-35.83090960102813,0.8675759660114968,52.554794,-1.463092,16.338727499812524,0.0
2020-01-08T10:16:10.700000,0.19629008899173955,0.21326434652790274,-0.19332471973051546,-5.239010014422187,-36.610495043482004,1.1804950434820076,52.554794,-1.463092,16.747504986933855,0.0
2020-01-08T10:16:10.800000,0.091629911808,0.140295043072,0.06402492672,-6.152499840000001,-36.4669996032,1.2140003583999999,52.554794,-1.463092,17.06545005312,0.0
2020-01-08T10:16:10.900000,-0.037440050944,0.158169832192,-0.03299999872,-5.8364995584,-36.024000358399995,1.46499904,52.554794,-1.463092,17.24670047232,0.0
2020-01-08T10:16:11.000000,-0.0979749696,-0.010894770431999996,-0.039985037056,-5.2214998783999995,-36.4804999168,0.19,52.554794,-1.463092,17.95020032512,0.0
2020-01-08T10:16:11.100000,-0.051944975872,0.28394995712,-0.078804955648,-5.1170002432,-36.3054997248,0.2935004416,52.554794,-1.463092,18.45370030592,0.0
2020-01-08T10:16:11.200000,-0.028585037056,0.24728008652800001,-0.044560105216,-5.3079994368,-35.97750016,0.9730003968000001,52.554794,-1.463092,18.86435001856,0.0
2020-01-08T10:16:11.300000,-0.071409972736,0.36198999910400004,-0.165864921344,-4.52249984,-36.1794999552,1.3124992,52.554794,-1.463092,18.98455040768,0.0
2020-01-08T10:16:11.400000,-0.0334727210196551,0.3360877893250655,-0.05626361776897437,-4.281212016994251,-35.97909039897186,0.4393946250378181,52.554794,-1.463092,19.59266690801331,0.0
2020-01-08T10:16:11.500000,-0.025384159419665375,0.20402079608446483,-0.024933661740142093,-4.012277159462754,-35.29772284053724,1.390693000043089,52.554794,-1.463092,19.999584179696907,0.0
2020-01-08T10:16:11.600000,-0.016315088216508625,0.23473635326942818,-0.006618164869065135,-3.429393900997882,-35.842727173994554,0.7539391909888059,52.554794,-1.463092,20.264666980417307,0.0
2020-01-08T10:16:11.700000,0.084688,0.22622,-0.006000000000000002,-3.3204000000000002,-35.73,0.5104,52.554794,-1.463092,20.83128,0.0
2020-01-08T10:16:11.800000,0.08025840276176018,0.2595059366691084,-0.12471682174531279,-2.9316830870071047,-35.90990097102635,0.8499009710263579,52.554794,-1.463092,21.284297046366447,0.0
2020-01-08T10:16:11.900000,-0.025919985152,0.211854937088,-0.035099973119999996,-2.2785001216,-35.8430003968,0.6809999616,52.554794,-1.463092,21.49795031552,0.0
2020-01-08T10:16:12.000000,-6.49738239999996e-05,0.143810066176,0.000690000384,-2.47750016,-36.2304994048,0.66750016,52.554794,-1.463092,21.98885030656,0.0
2020-01-08T10:16:12.100000,0.04692505216,0.213864923904,0.006405022208000001,-2.6239997184,-35.504500275199995,0.95500032,52.554794,-1.463092,22.426750131200002,0.0
2020-01-08T10:16:12.200000,0.055344740352,0.098159937536,0.051185065216000004,-2.1929997568,-35.936000281599995,1.3980000767999998,52.554794,-1.463092,22.598749990399998,0.0
2020-01-08T10:16:12.300000,-0.262694885632,0.07577025843200001,0.120009924096,-1.9270002432000002,-36.150999321600004,1.6695007232,52.554794,-1.463092,22.63685021696,0.0
2020-01-08T10:16:12.400000,-0.0897999104,0.307519524352,0.050415133184,-2.25,-35.5035010816,2.6194999552,52.554794,-1.463092,22.91194994432,0.0
2020-01-08T10:16:12.500000,0.029455001088,-0.278194803712,0.211144931072,-2.1284994816,-36.9204999168,2.5885001216,52.554794,-1.463092,22.8747501568,0.0
2020-01-08T10:16:12.600000,0.04147504512,-0.070000224,0.137645076992,-1.5705005568,-36.77249984,2.8070002432,52.554794,-1.463092,23.019849730559997,0.0
2020-01-08T10:16:12.700000,0.11258185866223279,-0.33104532257272073,0.21633930864529544,-2.2918181159963695,-36.52212107499244,3.1481818840036304,52.554794,-1.463092,22.628211998893253,0.0
2020-01-08T10:16:12.800000,0.12233660016576645,-0.11462276449759336,0.08230890956604171,-2.19,-36.14207910151547,3.310198057947284,52.554794,-1.463092,22.437257424638368,0.0
2020-01-08T10:16:12.900000,-0.14961996211200002,-0.05345001728,0.076570022912,-2.0489993984,-35.2785001216,3.5819997952,52.554794,-1.463092,22.3874998272,0.0
2020-01-08T10:16:13.000000,-0.079964917504,-0.06984497203199999,0.101359975936,-1.2965001984,-35.542000435199995,3.2634998016,52.554794,-1.463092,22.19145014272,0.0
2020-01-08T10:16:13.100000,0.026194985472000002,-0.043920047872000004,0.0694,-1.4669996032000001,-36.1019999232,2.9819999232,52.554794,-1.463092,22.36644993792,0.0
2020-01-08T10:16:13.200000,0.007605003008,-0.08447490176,0.050349918720000005,-1.01500032,-36.0090000384,2.95500032,52.554794,-1.463092,22.28189999104,0.0
2020-01-08T10:16:13.300000,0.008734987776,0.029109927935999997,-0.042899937279999995,-1.5615005184,-35.956499558400004,3.3604999168,52.554794,-1.463092,22.25859995136,0.0
2020-01-08T10:16:13.400000,-0.009645009151999999,-0.043079899648000006,0.024589932544,-2.17499968,-35.40750016,3.3340003584,52.554794,-1.463092,22.163699870720002,0.0
2020-01-08T10:16:13.500000,-0.018289985023999998,0.077944947712,-0.051964944384,-1.7409999616,-35.7520005632,3.7919999232,52.554794,-1.463092,22.00505005568,0.0
2020-01-08T10:16:13.600000,0.004765013504,0.016660034816,0.012764961024,-1.6704999167999999,-36.2839990784,3.7080000768,52.554794,-1.463092,22.04704986368,0.0
2020-01-08T10:16:13.700000,0.018364981504,0.057679977728,-0.038759998976,-1.6635004416,-35.06,3.8760002816,52.554794,-1.463092,21.87095002112,0.0
2020-01-08T10:16:13.800000,-0.009905015808,0.024619985152,-0.040685014016000005,-2.1179994368,-35.2190006784,4.0714992384,52.554794,-1.463092,21.9087500416,0.0
2020-01-08T10:16:13.900000,-0.032340006144,0.0021699883519999998,-0.055774984959999996,-1.4450003200000001,-36.0554997248,3.0705000448,52.554794,-1.463092,21.913149783039998,0.0
2020-01-08T10:16:14.000000,-0.035639979264000005,-0.030895075071999997,-0.030309976576,-1.9270002432000002,-35.736500198399995,3.0444996351999998,52.554794,-1.463092,21.6542501248,0.0
2020-01-08T10:16:14.100000,-0.0067649943039999995,-0.12612998092799999,0.0043250150400000005,-2.3715005184,-35.92499968,2.71000064,52.554794,-1.463092,21.75564972544,0.0
2020-01-08T10:16:14.200000,-0.0009850076160000001,-0.11890507724800001,0.029655022848,-3.0314998784,-35.5930003968,3.52249984,52.554794,-1.463092,21.33864977664,0.0
2020-01-08T10:16:14.300000,-0.003329966848000001,-0.21969999232,0.056219983872,-2.9645004032,-36.0269996032,3.34750016,52.554794,-1.463092,20.944799585280002,0.0
2020-01-08T10:16:14.400000,0.032644965632,-0.22801007897599998,0.045795046911999995,-3.5555002368,-35.53750016,3.48499968,52.554794,-1.463092,20.232599311359998,0.0
2020-01-08T10:16:14.500000,-0.013615002624,-0.330304988928,0.102069974272,-3.75749952,-35.7304999168,3.02249984,52.554794,-1.463092,19.1364992256,0.0
2020-01-08T10:16:14.600000,-0.010754972928000001,-0.32925005824,0.076045034752,-3.2610006016,-35.723500441599995,2.73499968,52.554794,-1.463092,17.93579926528,0.0
2020-01-08T10:16:14.700000,0.021104982528,-0.41830004992,0.10650993305600001,-4.0885001216,-36.225999641600005,2.2169996032,52.554794,-1.463092,16.8129993728,0.0
2020-01-08T10:16:14.800000,-0.011910041856,-0.479754979328,0.023420024832,-4.4465008383999995,-35.9930010368,1.69,52.554794,-1.463092,15.82669934592,0.0
2020-01-08T10:16:14.900000,-0.05278493721600001,-0.494630180608,0.063360029696,-5.672500479999999,-37.342999884799994,1.7080000767999999,52.554794,-1.463092,14.789549281280001,0.0
2020-01-08T10:16:15.000000,-0.01654520115200001,-0.739765022464,0.140540161024,-6.2544997632,-37.11499968,1.7259996416,52.554794,-1.463092,13.73284956416,0.0
2020-01-08T10:16:15.100000,-0.25617488256,-0.757404947968,0.33197490432,-6.16500096,-36.65249984,1.13749952,52.554794,-1.463092,12.963499187200002,0.0
2020-01-08T10:16:15.200000,-0.09959999743999999,-0.693280021248,0.174239869184,-7.4670001152,-36.327499519999996,0.3784994816,52.554794,-1.463092,11.72409931776,0.0
2020-01-08T10:16:15.300000,-0.097745006592,-0.715694975232,0.033605141248,-7.7610006016,-35.6794999552,-0.26349980159999997,52.554794,-1.463092,10.70894953472,0.0
2020-01-08T10:16:15.400000,-0.072419854592,-0.66644993024,0.209244948992,-8.7190006784,-35.8270008832,0.10350044159999999,52.554794,-1.463092,9.9769995136,0.0
2020-01-08T10:16:15.500000,0.1105749568,-0.595145091072,0.125839933184,-9.668000204799998,-36.9054995968,0.5774995199999999,52.554794,-1.463092,9.21654951168,0.0
2020-01-08T10:16:15.600000,0.032394911232,-0.679559844096,0.022159936256000004,-9.97750016,-36.239499443199996,-0.09750016,52.554794,-1.463092,8.4772496128,0.0
2020-01-08T10:16:15.700000,-0.07725754591835415,-0.49960615873541253,-0.024075618472327448,-10.379394625037818,-35.55606080901119,-0.28121201699425163,52.554794,-1.463092,7.899817953087383,0.0
2020-01-08T10:16:15.800000,-0.03480693304201698,-0.6135227482758009,0.14145244378768715,-11.58732682602888,-35.999901072412555,-0.1009900869640155,52.554794,-1.463092,7.5653267449199175,0.0
2020-01-08T10:16:15.900000,-0.050329982208,-0.41588501529599997,-0.096784891136,-12.5485007616,-36.6419997952,-0.07500032,52.554794,-1.463092,7.6507499264,0.0
2020-01-08T10:16:16.000000,-0.03041288007056462,-0.43764059746737904,0.04169602516399177,-13.662475489947584,-36.38930697636693,-0.5653466892419373,52.554794,-1.463092,7.539633631745967,0.0
2020-01-08T10:16:16.100000,-0.0501020317130312,-0.44080912758133833,0.012031274727320684,-14.276868493320714,-36.37555645198827,-0.8862630133585714,52.554794,-1.463092,7.482373597815462,0.0
2020-01-08T10:16:16.200000,-0.024019930111999998,-0.42347505791999995,0.03629996544,-14.6080007168,-35.7145004032,-0.49399971840000007,52.554794,-1.463092,7.5594998272,0.0
2020-01-08T10:16:16.300000,0.06857499904,-0.49226996531199996,0.008385076736,-15.5314998784,-36.2680000768,-0.2610006016,52.554794,-1.463092,7.3705001728,0.0
2020-01-08T10:16:16.400000,0.03144984704,-0.43866996787199997,0.11649502643199999,-15.5770008832,-36.3054997248,-0.8919992832000001,52.554794,-1.463092,7.55409980416,0.0
2020-01-08T10:16:16.500000,-0.130359823616,-0.426795131392,0.162295045632,-16.8160002816,-35.97750016,0.09750016,52.554794,-1.463092,7.353400253439999,0.0
2020-01-08T10:16:16.600000,0.09365495628800001,-0.5945049710079999,0.183269830912,-17.2365001984,-36.1239997184,0.36700024319999996,52.554794,-1.463092,7.73365018624,0.0
2020-01-08T10:16:16.700000,0.028219968512,-0.522654857728,-0.035464975104,-17.4909999616,-35.7034998016,0.6809999616,52.554794,-1.463092,8.09605049088,0.0
2020-01-08T10:16:16.800000,-0.005229964287999999,-0.344770047232,0.0037650263039999995,-17.579500595200003,-35.5330003968,0.6194999552,52.554794,-1.463092,8.875500544,0.0
2020-01-08T10:16:16.900000,0.012745347914118518,-0.362863474771087,0.021836302586632668,-18.35181811599637,-36.06,0.4660602659812422,52.554794,-1.463092,9.767546068333855,0.0
2020-01-08T10:16:17.000000,-0.13959009101946362,-0.13187822984759118,-0.05286137363096943,-18.32920797098327,-35.99029698553473,0.028712927501261004,52.554794,-1.463092,10.895534766596288,0.0
2020-01-08T10:16:17.100000,-0.06945146971974318,-0.21438802907756296,0.03166821719966238,-18.926733539316302,-35.56504923567476,0.5,52.554794,-1.463092,11.968010508679926,0.0
2020-01-08T10:16:17.200000,-0.05659403419127247,-0.13434816422869958,-0.06492186848801668,-19.930199935488165,-35.26680011059172,0.5350002303994101,52.554794,-1.463092,12.84630110130918,0.0
2020-01-08T10:16:17.300000,-0.06465774750593456,-0.2946140908879339,0.057432325880874435,-19.95909026732658,-35.36151521263556,0.8744435480117294,52.554794,-1.463092,13.900020014584271,0.0
2020-01-08T10:16:17.400000,0.06503993574400001,-0.329204965888,0.055875002879999996,-20.5090000384,-35.3940003584,1.4889993983999998,52.554794,-1.463092,14.151900400639999,0.0
2020-01-08T10:16:17.500000,-0.009934955776,-0.28637501056,0.050864962304000005,-20.6170002432,-35.83249984,0.8115005183999999,52.554794,-1.463092,14.800100495359999,0.0
2020-01-08T10:16:17.600000,0.049595003392,-0.293394970112,0.006440024064,-21.024000358400002,-35.6109999616,1.5660002816,52.554794,-1.463092,15.50990022144,0.0
2020-01-08T10:16:17.700000,0.038079931648,-0.238234934016,0.033644979712,-21.3124992,-35.5314998784,1.90249984,52.554794,-1.463092,15.9292505344,0.0
2020-01-08T10:16:17.800000,-0.0755750976,-0.129134908416,0.017890047744,-20.47500096,-35.342999884799994,1.6990000384,52.554794,-1.463092,16.72870038272,0.0
2020-01-08T10:16:17.900000,-0.13436969779199998,-0.07203027532799999,0.095385060096,-21.8430003968,-35.1704999168,1.8910006016,52.554794,-1.463092,17.32445037312,0.0
2020-01-08T10:16:18.000000,0.245414907904,-0.43733999846399996,0.161684942336,-22.3805000448,-35.1440003584,2.69,52.554794,-1.463092,17.91660041216,0.0
2020-01-08T10:16:18.100000,0.1084749376,-0.4236749504,0.085310000896,-22.3829997568,-35.58249984,2.7740003584,52.554794,-1.463092,18.46940002304,0.0
2020-01-08T10:16:18.200000,0.023604991488,-0.371960060416,0.099490055424,-22.1920005632,-35.380500044799994,3.28750016,52.554794,-1.463092,18.5270001152,0.0
2020-01-08T10:16:18.300000,0.007919981312000002,-0.464455052288,0.178320022272,-23.0045002752,-35.3829997568,3.5840003584,52.554794,-1.463092,18.63634981376,0.0
2020-01-08T10:16:18.400000,-0.021805020927999998,-0.5483900618240001,0.218865046784,-23.3895000832,-35.0690000384,4.06,52.554794,-1.463092,18.396050030079998,0.0
2020-01-08T10:16:18.500000,-0.063085057536,-0.5406946168319999,0.22839477555200002,-23.5,-35.12,3.8829992447999997,52.554794,-1.463092,18.44515003904,0.0
2020-01-08T10:16:18.600000,-0.135794984192,-0.080385207296,-0.044259891456,-23.6215005184,-35.08249984,2.9820004352,52.554794,-1.463092,18.47314989824,0.0
2020-01-08T10:16:18.700000,-0.094954915328,-0.281809684736,0.05738981862400001,-24.234999679999998,-34.936000281599995,3.7295007232,52.554794,-1.463092,18.328399959040002,0.0
2020-01-08T10:16:18.800000,0.008634962176,0.10104984704,-0.15141486310399999,-23.81,-35.27249984,4.69,52.554794,-1.463092,18.28090002944,342.0517660123363
2020-01-08T10:16:18.900000,-0.026104933887999997,-0.07404988032,0.0037898864639999974,-23.9045004032,-35.1065001984,4.61499968,52.55484665022464,-1.4631200501196802,18.34220009472,342.05188515947356
2020-01-08T10:16:19.000000,0.05502497152,0.071729943808,-0.131609934336,-24.4865001984,-35.257499519999996,4.1990000384,52.555145,-1.463279,18.4950001152,0.0
2020-01-08T10:16:19.100000,0.021160016896,0.011635062016000002,-0.059985066496,-24.82500032,-34.592999884799994,4.3715005183999995,52.555145,-1.463279,18.63779995648,0.0
2020-01-08T10:16:19.200000,0.035154963968,0.088374976,-0.14603499033599998,-25.1659996416,-34.4580000768,5.1260002816,52.555145,-1.463279,18.62365018624,0.0
2020-01-08T10:16:19.300000,-0.005814970624,0.043419944192,-0.12317995724800002,-24.5954995968,-34.6065001984,5.46249984,52.555145,-1.463279,18.851049914879997,0.0
2020-01-08T10:16:19.400000,0.03732122704082293,-0.015896916107044134,-0.07167274636105286,-24.211515700030255,-34.804848248986985,5.2318181159963695,52.555145,-1.463279,18.752242475802845,0.0
2020-01-08T10:16:19.500000,0.050831677105221136,0.04589899653005721,-0.08816236797615397,-25.099603985491633,-34.34970291307907,5.258316912992895,52.555145,-1.463279,18.828514849276736,0.0
2020-01-08T10:16:19.600000,-0.00019500083199999998,-0.050719933951999994,-0.026535032576,-25.2544997632,-33.973500441599995,6.0615005184,52.555145,-1.463279,18.7927499264,0.0
2020-01-08T10:16:19.700000,-0.002345458330208756,0.001848357592980951,-0.05410297347686563,-24.882424033988503,-34.56,6.712121074992436,52.555145,-1.463279,18.710757632803148,0.0
2020-01-08T10:16:19.800000,-0.014457429707678231,-0.1759584037756222,0.01448909667427908,-24.66930699995691,-34.620198057947285,6.390693000043089,52.555145,-1.463279,18.73404946379372,0.0
2020-01-08T10:16:19.900000,-0.043154980608,-0.094555084288,-0.07362493823999999,-25.2304999168,-34.8829997568,5.8670002432,52.555145,-1.463279,18.363649891839998,0.0
2020-01-08T10:16:20.000000,-0.011909976576,-0.193689945344,0.007889997824,-25.12,-34.5314998784,6.2740003584,52.555145,-1.463279,18.24160009216,0.0
2020-01-08T10:16:20.100000,0.017639993344,-0.123740011264,0.011330027008,-25.168000204800002,-34.37,6.82500032,52.555145,-1.463279,18.27369961472,0.0
2020-01-08T10:16:20.200000,0.014560024575999999,-0.136959992576,0.041844977152,-25.4580000768,-34.455500364799995,7.3070002432,52.555145,-1.463279,17.7717500416,0.0
2020-01-08T10:16:20.300000,0.04014996992,-0.12768500249599998,0.012895005951999999,-25.52249984,-34.9204999168,7.5819997952,52.555145,-1.463279,17.862700152320002,0.0
2020-01-08T10:16:20.400000,-0.001480007168,-0.131360001536,0.021565003263999998,-25.3940003584,-34.73499968,7.347500159999999,52.555145,-1.463279,18.049249932800002,0.0
2020-01-08T10:16:20.500000,-0.014135013375999999,-0.13475000575999999,0.02319998848,-25.90750016,-34.188499481600005,7.6635004416,52.555145,-1.463279,17.912599797760002,0.0
2020-01-08T10:16:20.600000,-0.031239997183999998,-0.15132503808,0.01322502272,-26.168000204800002,-33.5285001216,8.4660009216,52.555145,-1.463279,17.67310012416,0.0
2020-01-08T10:16:20.700000,-0.02533332548956736,-0.1976121056891438,0.03668785448865973,-26.364242149984875,-33.73696986700938,9.756666908013312,52.555145,-1.463279,17.778605845588142,0.0
2020-01-08T10:16:20.800000,-0.012962376087050195,-0.19197624926811835,-0.0008683168116066925,-25.94,-33.92079202901673,10.02069300004309,52.555145,-1.463279,17.403702943494935,0.0
2020-01-08T10:16:20.900000,-0.01717502336,-0.278229951488,-0.0013600028160000001,-25.97750016,-33.6215005184,9.543500441599999,52.555145,-1.463279,17.165049940480003,0.0
2020-01-08T10:16:21.000000,-0.053457594791049834,-0.22592125600242036,-0.0019181702993646549,-26.19,-34.470606642032074,10.157272826005446,52.555145,-1.463279,17.042818025491375,0.0
2020-01-08T10:16:21.100000,-0.06184652131264717,-0.3032891149237956,0.018054456810744912,-26.229603985491636,-35.13237608705019,10.360693101429293,52.555145,-1.463279,16.765039581173596,0.0
2020-01-08T10:16:21.200000,0.043939974144,-0.367095057152,0.047830078208000004,-26.617000755200003,-33.83249984,10.835500876800001,52.555145,-1.463279,16.57670001152,0.0
2020-01-08T10:16:21.300000,0.007645447469609715,-0.4564394425926836,0.14785150121923155,-27.544242149984875,-33.66848502400968,12.122727717024507,52.555145,-1.463279,16.53260584558814,0.0
2020-01-08T10:16:21.400000,-0.008717825215255583,-0.5320801982607196,0.11982078797356861,-27.150099028973642,-33.998613898527616,12.928811956474904,52.555145,-1.463279,16.118415789887234,0.0
2020-01-08T10:16:21.500000,-0.047610043135999994,-0.53792501632,0.068404927488,-27.3385001216,-34.3385001216,13.67250048,52.555145,-1.463279,15.73465021184,0.0
2020-01-08T10:16:21.600000,-0.098554972928,-0.560665004544,-0.00014988160000000209,-27.42499968,-34.4159996416,14.2634998016,52.555145,-1.463279,15.939349672959999,0.0
2020-01-08T10:16:21.700000,-0.053569961472,-0.565619995392,0.147364958464,-26.92499968,-33.90249984,14.1320005632,52.555145,-1.463279,15.46014980864,0.0
2020-01-08T10:16:21.800000,0.0030300231679999995,-0.549584957696,0.081654955008,-26.7055008768,-33.736500198399995,15.1320010752,52.555145,-1.463279,15.20389999104,0.0
2020-01-08T10:16:21.900000,0.012724910079999995,-0.497510017536,0.04236008729599999,-27.79499968,-33.9159996416,16.7010006016,52.555145,-1.463279,15.1724999168,0.0
2020-01-08T10:16:22.000000,-0.096364955904,-0.48811486054400005,0.130744882432,-27.37,-33.4204999168,17.641000601600002,52.555145,-1.463279,14.938399472639999,0.0
2020-01-08T10:16:22.100000,-0.04245153199092881,-0.35930929512126375,0.0011152475052945456,-27.37,-33.30090905799819,18.562727717024508,52.555145,-1.463279,14.16103002438463,0.0
2020-01-08T10:16:22.200000,-0.06385841290038045,-0.6242375914693649,0.11061383668203514,-27.430198057947287,-33.32920797098327,19.40841594196654,52.555145,-1.463279,13.61198012323493,0.0
2020-01-08T10:16:22.300000,-0.047885037056,-0.393205169408,-0.056029827328,-27.6464995584,-33.6839997184,20.3445004032,52.555145,-1.463279,12.839799380479999,0.0
2020-01-08T10:16:22.400000,-0.09308483394919825,-0.5868514016637403,0.14819384850498685,-26.975151207983057,-33.25393919098881,20.93606080901119,52.555145,-1.463279,11.932908786483209,0.0
2020-01-08T10:16:22.500000,-0.07360990289736422,-0.4450742788272658,0.038570316654458085,-26.53009902897364,-32.998613898527616,21.478118956431814,52.555145,-1.463279,11.398158375387485,0.0
2020-01-08T10:16:22.600000,-0.09023636594012707,-0.6028635580356797,0.19231208215784587,-26.632424033988503,-33.25393919098881,22.812727717024508,52.555145,-1.463279,11.019757433692163,0.0
2020-01-08T10:16:22.700000,-0.09636633825985791,-0.48518515072326385,0.12695742261064402,-26.23079202901673,-32.90990097102635,23.569703014465276,52.555145,-1.463279,10.778930679718451,0.0
2020-01-08T10:16:22.800000,-0.111335005696,-0.5045100034560001,0.102170006272,-25.8940003584,-32.7034998016,24.070500556800003,52.555145,-1.463279,10.63294985472,0.0
2020-01-08T10:16:22.900000,-0.09150596143452999,-0.500206028408224,0.10430300786876259,-26.218484299969745,-32.41121201699425,24.867575966011497,52.555145,-1.463279,10.395757415591165,0.0
2020-01-08T10:16:23.000000,0.0585415820303094,-0.4735604107155078,0.08708911999310573,-25.400099028973642,-32.22940592754435,25.29930699995691,52.555145,-1.463279,10.132633653629245,0.0
2020-01-08T10:16:23.100000,0.011881713854245593,-0.5542362102715408,0.16572722105715001,-25.541818115996367,-32.101818115996366,25.92696986700938,52.555145,-1.463279,10.054787892500757,0.0
2020-01-08T10:16:23.200000,-0.14359108536464815,-0.3418079365119598,0.08435841492810452,-25.34019795656108,-32.08871292750126,26.23910894200963,52.555145,-1.463279,10.071564353624938,0.0
2020-01-08T10:16:23.300000,-0.10462496768,-0.43537983692800003,0.06049993088,-24.688499481599997,-32.5885001216,26.5465001984,52.555145,-1.463279,10.119250304,0.0
2020-01-08T10:16:23.400000,-0.07406368112246876,-0.2191636376800726,-0.016921160067128842,-24.11363677502269,-32.67424214998487,26.92363677502269,52.555145,-1.463279,10.583454764312071,0.0
2020-01-08T10:16:23.500000,-0.09796135740917698,-0.23219406637247772,0.05290692391725872,-24.621683087007106,-32.299108942009624,27.599603985491633,52.555145,-1.463279,11.030990168072979,0.0
2020-01-08T10:16:23.600000,0.122514913024,-0.26536989235200004,-0.011670033152,-24.024000358400002,-32.456499558400004,27.8205000448,52.555145,-1.463279,11.76990068224,0.0
2020-01-08T10:16:23.700000,-0.010715075584000002,-0.172470213632,-0.022129856768,-24.38749952,-31.83249984,27.9820004352,52.555145,-1.463279,12.773200414719998,0.0
2020-01-08T10:16:23.800000,-0.09114991488,-0.410314804224,0.14213488921599998,-23.7214998784,-31.6485001216,28.6080002048,52.555145,-1.463279,13.414600386560002,0.0
2020-01-08T10:16:23.900000,-0.0040801108480000015,-0.17830511948799999,0.014245082111999999,-23.438499481599997,-31.7544997632,29.0105005568,52.555145,-1.463279,14.023100405760001,0.0
2020-01-08T10:16:24.000000,-0.112404834048,-0.286839785984,0.093464872704,-22.7590000384,-31.4670001152,29.7214998784,52.555145,-1.463279,14.70030059008,0.0
2020-01-08T10:16:24.100000,0.079229877248,-0.034160134656,-0.047369879552000005,-22.84750016,-31.65750016,29.5329998848,52.555145,-1.463279,15.587050439680002,0.0
2020-01-08T10:16:24.200000,-0.043464827904000004,-0.192809913856,0.070884822016,-23.0509999616,-31.98250048,29.4640003584,52.555145,-1.463279,16.28545048832,0.0
2020-01-08T10:16:24.300000,0.17866058274871416,-0.11617286401754245,-0.10253007506742624,-22.97121201699425,-32.468484299969745,29.89303013299062,52.555145,-1.463279,17.013091195415793,0.0
2020-01-08T10:16:24.400000,0.09919403190116872,-0.2026781386000086,0.17737124104316265,-22.859108942009627,-31.63108911593766,29.679108942009627,52.555145,-1.463279,17.617425844863902,0.0
2020-01-08T10:16:24.500000,-0.12029995263999999,0.448509944576,-0.19783995238399998,-22.9984994816,-31.7170001152,29.9490000384,52.555145,-1.463279,18.569500403200003,0.0
2020-01-08T10:16:24.600000,-0.039849925120000004,0.346219877632,-0.12696496742399999,-22.4315005184,-31.8895000832,30.07500032,52.555145,-1.463279,19.18435033856,0.0
2020-01-08T10:16:24.700000,0.06594850783126767,0.2465032576625405,-0.12332135555791156,-23.157878925007566,-32.01818188400363,30.5,52.555145,-1.463279,19.78127326042941,0.0
2020-01-08T10:16:24.800000,0.08595939609308267,0.4676652638195731,-0.27432470756417116,-23.241683087007104,-32.051881144954386,30.381188043525096,52.555145,-1.463279,20.702950556483522,0.0
2020-01-08T10:16:24.900000,0.012280037888,-0.157939710464,0.063454834688,-22.6065001984,-31.65249984,29.90000064,52.555145,-1.463279,21.29630033408,0.0
2020-01-08T10:16:25.000000,0.034714881024,0.13502460927999999,-0.092214727424,-22.8805000448,-31.4490000384,30.6839997184,52.555145,-1.463279,21.8232503552,0.0
2020-01-08T10:16:25.100000,-0.11113494809600001,-0.336289796864,0.245889897984,-22.9294999552,-31.61250048,30.34750016,52.555145,-1.463279,22.3565002624,0.0
2020-01-08T10:16:25.200000,-0.009366547803443842,-0.12192444307106712,0.13111219619413578,-22.918485024009684,-32.18333309198669,30.522121074992434,52.555145,-1.463279,22.83697017472635,0.0
2020-01-08T10:16:25.300000,0.17125247318968598,-0.42437920290167314,0.22826434450017868,-23.23910894200963,-31.819504956517992,30.31,52.555145,-1.463279,23.63540597823745,0.0
2020-01-08T10:16:25.400000,0.123894871552,-0.33779481011199997,0.126069990912,-23.3679994368,-31.8234998016,30.31,52.555145,-1.463279,24.04385039616,0.0
2020-01-08T10:16:25.500000,-0.011851388993041459,-0.1371607927202956,0.10943937742908934,-22.6775759660115,-31.53121201699425,30.329697041003932,52.555145,-1.463279,24.633788109712736,0.0
2020-01-08T10:16:25.600000,0.092324,-0.323548,0.051084000000000004,-22.950400000000002,-31.330000000000002,30.430400000000002,52.555145,-1.463279,25.01356,0.0
2020-01-08T10:16:25.700000,-0.37082078290425846,0.14347916336105399,-0.07255046422207634,-22.718514869553978,-31.210297086920928,30.487722840537245,52.555145,-1.463279,25.233386202858586,0.0
2020-01-08T10:16:25.800000,-0.26592488063999997,-0.170279744768,0.13516978355200002,-22.8054997248,-31.6329997568,31.0509999616,52.555145,-1.463279,25.84820032512,0.0
2020-01-08T10:16:25.900000,-0.11950505164799999,0.09968470553599999,-0.10444979584,-22.44,-31.38500032,31.0570002432,52.555145,-1.463279,26.31990017024,0.0
2020-01-08T10:16:26.000000,-0.13790284857997667,-0.24267255087027012,0.1120028322890781,-22.524848792016943,-31.705454166979123,31.360302958996066,52.555145,-1.463279,26.63448516881767,0.0
2020-01-08T10:16:26.100000,0.12255840276176017,-0.011035669693889704,-0.13711184495007997,-22.871683087007106,-31.159603985491636,31.33871292750126,52.555145,-1.463279,27.175623791286363,0.0
2020-01-08T10:16:26.200000,0.005879970048,-0.152189667584,0.11061476070399998,-22.265000320000002,-31.418000204800002,31.8580002048,52.555145,-1.463279,27.494650327040002,0.0
2020-01-08T10:16:26.300000,-0.05587509376,0.231789754624,-0.185809908736,-22.6044996352,-31.7080000768,31.922999116800003,52.555145,-1.463279,27.94790008064,0.0
2020-01-08T10:16:26.400000,-0.106989686784,-0.084889960704,-0.07225003264,-22.08249984,-31.77249984,30.891000601600002,52.555145,-1.463279,28.14410038016,0.0
2020-01-08T10:16:26.500000,0.2779392814937978,-0.04562428921258071,-0.08820596143452998,-21.794242149984875,-31.579697041003932,31.632424033988503,52.555145,-1.463279,28.682181938306627,0.0
2020-01-08T10:16:26.600000,0.08966335725202836,-0.0597029333563142,0.030427700738345026,-21.52841594196654,-31.709009913035985,31.44940602893055,52.555145,-1.463279,28.87940594782159,0.0
2020-01-08T10:16:26.700000,0.003333296527969919,0.22698476516540433,-0.16355760927184854,-22.25636322497731,-31.687272282975492,32.038484299969745,52.555145,-1.463279,29.009394190613857,0.0
2020-01-08T10:16:26.800000,-0.051984157391941316,0.10735149101084579,-0.19746731536938797,-21.640594072455652,-31.148910985448545,31.29930699995691,52.555145,-1.463279,29.42017823187532,0.0
2020-01-08T10:16:26.900000,-0.05367504384,0.161645021952,-0.09949998848,-21.71249984,-31.8829997568,31.804999679999998,52.555145,-1.463279,29.604450283520002,0.0
2020-01-08T10:16:27.000000,-0.100604951808,0.162764880384,-0.07542496256,-21.4714998784,-31.67250048,31.41750016,52.555145,-1.463279,30.021500172800003,0.0
2020-01-08T10:16:27.100000,-0.025842385297851926,0.02773341961475904,-0.026518184780163375,-21.37666690801331,-32.1872722829755,31.63,52.555145,-1.463279,30.327818459915342,0.0
2020-01-08T10:16:27.200000,0.020992,0.11132800000000001,0.015540000000000009,-21.7292,-31.46,31.769199999999998,52.555145,-1.463279,30.87608,0.0
2020-01-08T10:16:27.300000,-0.043352,-0.09745999999999999,0.17539200000000002,-21.580000000000002,-31.2804,32.4504,52.555145,-1.463279,31.501759999999997,0.0
2020-01-08T10:16:27.400000,-0.01630495347640616,0.11688906828614228,-0.2348286900142194,-21.30188114495439,-31.40990097102636,32.080693000043084,52.555145,-1.463279,31.618811936197663,0.0
2020-01-08T10:16:27.500000,-0.034504971008,-0.20131990451200002,-0.013499873279999998,-21.052500480000003,-31.32500032,31.6035004416,52.555145,-1.463279,32.15020029952,0.0
2020-01-08T10:16:27.600000,0.011185030656,-0.071904988928,0.129929893888,-21.6794999552,-31.67499968,32.11499968,52.555145,-1.463279,32.59765021184,0.0
2020-01-08T10:16:27.700000,0.04769998208,-0.076535082496,-0.012125004799999999,-21.5734998016,-31.3430003968,31.793500441600003,52.555145,-1.463279,32.95085030656,0.0
2020-01-08T10:16:27.800000,0.021514989824000002,-0.142884815616,-0.015184985856,-21.31,-31.8054997248,32.3604999168,52.555145,-1.463279,33.389200133120006,0.0
2020-01-08T10:16:27.900000,0.004159983616,0.076634891776,-0.007635047936000001,-21.225999641599998,-31.4670001152,32.3535004416,52.555145,-1.463279,33.66170040832,117.20231511894758
2020-01-08T10:16:28.000000,-0.010159968256,-0.071870020352,-0.082160046336,-20.8340003584,-31.5644997632,32.789999359999996,52.5551142498688,-1.46318059958016,34.219000064,117.20207841060119
2020-01-08T10:16:28.100000,0.024651488548532656,-0.12088492807438994,-0.08657858108859404,-21.319090942001814,-31.240909057998184,31.911212016994252,52.55494,-1.462623,34.36839417251286,0.0
2020-01-08T10:16:28.200000,-0.037553478687352836,-0.1863841219067703,0.19632571914501015,-21.22267317397112,-31.27871292750126,31.819703014465276,52.55494,-1.462623,34.74785149709402,0.0
2020-01-08T10:16:28.300000,-0.15271501414400002,0.121005005568,-0.013495057151999999,-20.5045002752,-31.7034998016,32.2830003968,52.55494,-1.462623,34.89180018688,0.0
2020-01-08T10:16:28.400000,-0.12657480832,0.09583486105599998,-0.07922995660799999,-20.8519999232,-31.4294999552,32.7169996032,52.55494,-1.462623,35.20630028288,0.0
2020-01-08T10:16:28.500000,0.124264984064,-0.068554914048,-0.018209985536,-20.7680000768,-31.3519999232,32.34000064,52.55494,-1.462623,35.60960011776,0.0
2020-01-08T10:16:28.600000,0.071659865856,0.02804992512,0.0246251008,-20.7679995648,-31.3535004416,33.11499968,52.55494,-1.462623,35.8162502144,0.0
2020-01-08T10:16:28.700000,-0.09836360690837533,-0.055809034466886814,0.11521196450135629,-20.293030676020575,-31.84454510898094,32.76575785001513,52.55494,-1.462623,36.115697022902935,0.0
2020-01-08T10:16:28.800000,-0.0530059407245565,0.009987115080944211,-0.09512077175177616,-20.751188043525097,-31.270396014508364,33.09019795656108,52.55494,-1.462623,36.24362379128636,0.0
2020-01-08T10:16:28.900000,-0.05134241425944937,-0.09987574155911658,0.07310302234956131,-20.092727173994554,-31.03121201699425,32.57060609900212,52.55494,-1.462623,36.522060736607195,0.0
2020-01-08T10:16:29.000000,-0.0066881003013704865,-0.10287031462673402,0.07683169332701359,-20.09841594196654,-30.960297086920928,32.78841594196654,52.55494,-1.462623,36.78784162461251,0.0
2020-01-08T10:16:29.100000,0.11487866616328651,-0.23214235814635434,0.14415145053643602,-20.759696316964,-31.39151497599032,33.53454510898094,52.55494,-1.462623,37.18321232471123,0.0
2020-01-08T10:16:29.200000,-0.08928911897924371,-0.09799502928793935,0.04239405826158148,-19.819703014465276,-31.19920797098327,32.96039601450837,52.55494,-1.462623,37.500851486955405,0.0
2020-01-08T10:16:29.300000,-0.14677488512,0.021894788351999997,0.030099988480000003,-20.302500480000003,-31.4894994432,32.9090006784,52.55494,-1.462623,37.52995005952,0.0
2020-01-08T10:16:29.400000,-0.0015650314239999998,-0.22550985625599998,0.032515075584,-20.82749952,-30.8055002368,33.688499481600005,52.55494,-1.462623,37.6862503296,0.0
2020-01-08T10:16:29.500000,-0.035379966208,-0.10609030502399999,0.17007015859199998,-20.1239997184,-31.12,33.0660002816,52.55494,-1.462623,38.13585005056,0.0
2020-01-08T10:16:29.600000,0.016715030784,-0.513930011648,0.336779812608,-19.8340003584,-31.205500364800002,33.4114998784,52.55494,-1.462623,38.20630001408,0.0
2020-01-08T10:16:29.700000,0.007559786495999997,-0.499264871424,0.09564003302400001,-20.179499443199997,-31.6704999168,33.25,52.55494,-1.462623,38.297300308480004,0.0
2020-01-08T10:16:29.800000,-0.25840902722648745,-0.3181211745479276,0.18456076918899772,-19.48696986700938,-31.46606026598124,33.27878798300575,52.55494,-1.462623,38.73866678130632,0.0
2020-01-08T10:16:29.900000,-0.1270920584187301,-0.22747720711426986,0.3607336151024888,-19.740495043482007,-30.99861389852762,33.498613898527616,52.55494,-1.462623,38.87607918262443,0.0
2020-01-08T10:16:30.000000,0.03400298252736483,-0.06316972763169122,-0.028960551977016906,-19.59454510898094,-31.367575966011497,33.83878798300575,52.55494,-1.462623,38.69778800110675,0.0
2020-01-08T10:16:30.100000,-0.02016137363096943,-0.055597984949218186,0.04655742058291997,-19.109108942009627,-31.699504956517995,34.030099028973645,52.55494,-1.462623,38.987435707206785,0.0
2020-01-08T10:16:30.200000,0.09757005491199999,0.206044869632,-0.03733517337600001,-19.3144997632,-31.6839997184,34.1809999616,52.55494,-1.462623,39.43354962688,0.0
2020-01-08T10:16:30.300000,0.145194892032,0.046145056512,-0.26737499904,-18.9804999168,-31.3190000384,34.13,52.55494,-1.462623,39.02440036864,0.0
2020-01-08T10:16:30.400000,0.008085026816,0.12810002944,-0.228959841536,-18.8985001216,-31.3985001216,34.1390000384,52.55494,-1.462623,39.493899914240004,0.0
2020-01-08T10:16:30.500000,0.036829970688,0.16404998656,-0.032585060096,-19.0885001216,-31.5509999616,34.1614998784,52.55494,-1.462623,39.41030012928,0.0
2020-01-08T10:16:30.600000,-0.016710062336,0.172960114176,-0.126785061376,-19.2034998016,-31.5,34.0090000384,52.55494,-1.462623,39.55559988736,0.0
2020-01-08T10:16:30.700000,-0.07339988864000001,0.284444828672,-0.185109901056,-19.079500595200003,-31.5660002816,34.0419999232,52.55494,-1.462623,39.47935031296,0.0
2020-01-08T10:16:30.800000,0.062769949952,0.077105086208,-0.048839979264,-19.8144997632,-31.8364995584,33.9685001216,52.55494,-1.462623,39.77784950016,0.0
2020-01-08T10:16:30.900000,-0.031810119936,0.16671489382399998,-0.036015062784,-19.358999398399998,-31.32500032,34.063999718400005,52.55494,-1.462623,39.24255054848,0.0
2020-01-08T10:16:31.000000,-0.15011500314181614,0.025912121980042356,-0.12544547643120715,-18.569090942001814,-31.65454510898094,33.82181865902632,52.55494,-1.462623,39.96327269929846,0.0
2020-01-08T10:16:31.100000,0.06720197246857662,0.017262370003878022,-0.10707026393363259,-18.540792029016732,-31.159603985491636,34.422178130489115,52.55494,-1.462623,39.88926730725849,0.0
2020-01-08T10:16:31.200000,-0.01913038097429917,-0.014151439675836978,0.14191504839431215,-18.24424287402481,-31.20939335796793,33.74606080901119,52.55494,-1.462623,39.746757650904144,0.0
2020-01-08T10:16:31.300000,-0.14153762492681182,0.11742773216806791,-0.034439614631042934,-18.928910884062343,-30.647425956388723,34.03148513044603,52.55494,-1.462623,39.855554450727574,0.0
2020-01-08T10:16:31.400000,-0.133404923648,0.17924992768,-0.10492491904,-18.8609999616,-32.3544996352,33.9730003968,52.55494,-1.462623,39.86790022144,0.0
2020-01-08T10:16:31.500000,-0.038954570631388685,0.05382110576413364,0.006524256630783592,-18.89484879201694,-31.89878798300575,34.52878798300575,52.55494,-1.462623,40.10033311008769,0.0
2020-01-08T10:16:31.600000,-0.06020493928233776,-0.06678710088687581,0.015414843193564003,-19.22267317397112,-32.06,34.629801942052715,52.55494,-1.462623,39.672782126119365,0.0
2020-01-08T10:16:31.700000,0.002194865152,0.146189913344,-0.042039948544000005,-18.533000396800002,-31.90999936,34.245499724800005,52.55494,-1.462623,39.35870052352,0.0
2020-01-08T10:16:31.800000,-0.19615764547384534,0.020251475877833776,0.05417888880556683,-19.050909057998183,-31.135757850015125,33.907272826005446,52.55494,-1.462623,40.00703013299062,0.0
2020-01-08T10:16:31.900000,-0.3089742605777493,-0.009751465664295078,0.1903237497180196,-19.049108942009628,-31.550495043482005,34.18990107241256,52.55494,-1.462623,39.757148523183226,0.0
2020-01-08T10:16:32.000000,-0.303434863616,0.142484952576,0.05922489344,-19.3009999616,-31.5930003968,34.6819991552,52.55494,-1.462623,39.81934996736,0.0
2020-01-08T10:16:32.100000,-0.120784993536,0.058604910848,-0.049884861695999996,-19.2965001984,-32.1485001216,33.5419999232,52.55494,-1.462623,39.71509974016,0.0
2020-01-08T10:16:32.200000,-0.07594484531199999,-0.033489887743999996,0.13515000576,-19.5885001216,-32.225999641600005,33.4580000768,52.55494,-1.462623,39.34344988672,0.0
2020-01-08T10:16:32.300000,0.10749992035560704,0.06814528275052428,0.13692119083882615,-19.76818188400363,-31.68333309198669,33.58878798300575,52.55494,-1.462623,39.21375765090415,0.0
2020-01-08T10:16:32.400000,-0.007491999999999999,-0.108288,0.049968,-19.8204,-31.3308,33.7004,52.55494,-1.462623,39.29032,0.0
2020-01-08T10:16:32.500000,0.04448713434432275,0.2996890703138663,-0.181359372774256,-19.76752488397616,-31.51920797098327,33.44,52.55494,-1.462623,39.099584169558284,0.0
2020-01-08T10:16:32.600000,0.07292720476625147,0.06341849792743569,0.057411978982155,-20.794242149984875,-31.902121074992436,33.317272282975495,52.55494,-1.462623,39.18860604469913,0.0
2020-01-08T10:16:32.700000,-0.01849702101989451,0.5175643343615584,-0.16134851405846434,-20.430198057947287,-31.76920797098327,32.76782186951089,52.55494,-1.462623,39.12360393479853,0.0
2020-01-08T10:16:32.800000,0.061980032768,0.377110190336,-0.18345512268800002,-20.7785001216,-32.19,33.3589993984,52.55494,-1.462623,38.77939944704,0.0
2020-01-08T10:16:32.900000,0.09868997094399999,0.591694836992,-0.323869903872,-21.079500595200003,-32.2170001152,32.6635004416,52.55494,-1.462623,38.16485051136,0.0
2020-01-08T10:16:33.000000,0.048887838197761165,0.3868970120423356,-0.19323029227940702,-21.889697041003934,-32.389697041003934,33.013635507952806,52.55494,-1.462623,38.72460562837616,0.0
2020-01-08T10:16:33.100000,-0.01572178333261518,0.46386931419837735,-0.1874198088363145,-22.058613898527618,-32.51900991303599,31.620296985534726,52.55494,-1.462623,38.00752472175824,0.0
2020-01-08T10:16:33.200000,-0.005449914879999997,0.48990985113600005,-0.22709492403200002,-22.3609999616,-32.3859990016,31.1464995584,52.55494,-1.462623,37.75585002496,0.0
2020-01-08T10:16:33.300000,0.097114955264,0.319365115904,-0.132155025408,-22.4135004416,-31.17250048,30.6170002432,52.55494,-1.462623,37.689099573760004,0.0
2020-01-08T10:16:33.400000,0.052745509013004274,0.4099967405273597,-0.1381726268944634,-22.915151207983058,-31.71606026598124,30.96878798300575,52.55494,-1.462623,37.146484933504695,0.0
2020-01-08T10:16:33.500000,0.132328,0.094492,0.01814,-22.588800000000003,-31.3596,30.9892,52.55494,-1.462623,37.2164,0.0
2020-01-08T10:16:33.600000,0.10526534492853541,0.2614970058119641,0.03356436274969521,-23.409603985491636,-32.24049504348201,30.151782115980748,52.55494,-1.462623,36.903297036227826,0.0
2020-01-08T10:16:33.700000,0.09451213103054157,0.06504849878076846,0.08837879468037516,-23.610909057998185,-32.22787892500756,29.79060664203207,52.55494,-1.462623,36.885878526785596,0.0
2020-01-08T10:16:33.800000,0.07000096494318572,0.09615248130058221,0.10482475622954851,-23.66930699995691,-32.34019795656108,30.431782014594546,52.55494,-1.462623,36.42845541161531,0.0
2020-01-08T10:16:33.900000,-0.14314243236044777,0.12380900731538921,0.14242123428122228,-24.287878925007565,-31.92363677502269,28.975151207983057,52.55494,-1.462623,36.17778800110675,0.0
2020-01-08T10:16:34.000000,-0.1254900798669813,0.006919809850176541,0.15472770884924125,-24.519009913035983,-32.461782115980746,28.401782115980748,52.55494,-1.462623,36.256425672507355,0.0
2020-01-08T10:16:34.100000,0.037880012288,0.070739990784,0.058715088384,-24.714500403200002,-31.9580000768,27.88,52.55494,-1.462623,35.690000089600005,0.0
2020-01-08T10:16:34.200000,0.049457558589053034,0.058666667270033286,0.15082718123495356,-25.287878925007565,-32.097878925007564,27.945151751013007,52.55494,-1.462623,35.81445456520109,0.0
2020-01-08T10:16:34.300000,0.017735640291890876,0.0010019430665777831,0.04857131201350463,-25.430296985534724,-32.26089105799038,28.23079202901673,52.55494,-1.462623,35.78860392465991,0.0
2020-01-08T10:16:34.400000,-0.023020056832,-0.17903443993600002,0.20391977267199998,-25.1920005632,-32.0,27.6224992,52.55494,-1.462623,35.46514989824,0.0
2020-01-08T10:16:34.500000,-0.09045996569600001,0.48460965785599996,-0.08394494003200001,-25.9865001984,-32.0660002816,26.5885001216,52.55494,-1.462623,35.191249408,0.0
2020-01-08T10:16:34.600000,-0.02937493376,0.137195456512,-0.06085024127999999,-26.1659996416,-32.4490000384,26.6839997184,52.55494,-1.462623,34.4822503296,0.0
2020-01-08T10:16:34.700000,0.0563499904,0.7103198584320001,-0.34424984191999997,-25.765000320000002,-32.4714998784,26.38500032,52.55494,-1.462623,34.87079979008,0.0
2020-01-08T10:16:34.800000,0.05305004032,0.47720980761599996,-0.124834959616,-26.265000320000002,-32.23499968,26.8385001216,52.55494,-1.462623,34.55644984832,0.0
2020-01-08T10:16:34.900000,0.08424990464,0.248280113408,-0.095065101824,-26.72750016,-31.7544997632,27.0285001216,52.55494,-1.462623,34.30954980608,0.0
2020-01-08T10:16:35.000000,-0.01720293908496867,0.31089968142242813,-0.19528472172300818,-26.89151497599032,-31.382424033988503,27.199090942001817,52.55494,-1.462623,34.05745456520109,0.0
2020-01-08T10:16:35.100000,0.1296821818817786,-0.1625574134858858,-0.018447536948934307,-26.62,-31.15980204343892,27.180296985534724,52.55494,-1.462623,34.10859407245565,0.0
2020-01-08T10:16:35.200000,0.11559480883199999,-0.078085078016,-0.097059899136,-26.6305000448,-31.80250048,26.84750016,52.55494,-1.462623,34.21259997696,0.0
2020-01-08T10:16:35.300000,-0.12178478869670226,-0.14754836121318063,0.013899916735407369,-26.670302958996068,-32.37333309198669,27.06,52.55494,-1.462623,34.08048448097973,0.0
2020-01-08T10:16:35.400000,-0.04330396926984191,0.00026234871277542454,-0.12182277666393769,-26.361980072541826,-32.07920797098327,27.15980204343892,52.55494,-1.462623,33.422494992788906,0.0
2020-01-08T10:16:35.500000,-0.132130061568,-0.23110000256000002,-0.11781482598399999,-25.31,-32.5180000768,27.5579994368,52.55494,-1.462623,32.89629978368,0.0
2020-01-08T10:16:35.600000,-0.16067215130838564,-0.2663713625257267,0.12262675473725831,-25.24465331075806,-32.52792057425,26.940693378483875,52.55494,-1.462623,32.60261384627863,0.0
2020-01-08T10:16:35.700000,0.11453455929126649,-0.47237660000310305,0.17680706561370302,-24.782323863900828,-32.01696957472887,27.733838068049586,52.55494,-1.462623,32.5705252199277,0.0
2020-01-08T10:16:35.800000,-0.050254926848,-0.5559497536,0.147349856,-24.21249984,-32.1770002432,28.03750016,52.55494,-1.462623,32.5207496704,0.0
2020-01-08T10:16:35.900000,0.039864969984,-0.27242518656,-0.006504840448000003,-23.96249984,-32.3679994368,28.2965001984,52.55494,-1.462623,32.04744984832,0.0
2020-01-08T10:16:36.000000,-0.00886366845176989,-0.4582300786876259,0.17393018910371613,-23.730302958996067,-31.791212741034187,28.60848502400968,52.55494,-1.462623,31.86993948060478,0.0
2020-01-08T10:16:36.100000,-0.06138317014379099,-0.16103765534267267,0.019070310571285908,-23.512277159462755,-32.68980194205272,28.97821788401925,52.55494,-1.462623,31.941900950749115,0.0
2020-01-08T10:16:36.200000,-0.06942496896,-0.386589832704,0.10924490035199999,-22.9580000768,-32.2484994816,29.5465001984,52.55494,-1.462623,31.55364975104,0.0
2020-01-08T10:16:36.300000,-0.04871522578409646,-0.19132433989537623,0.007036472736017627,-22.91757524197156,-31.569090942001814,29.95242475802844,52.55494,-1.462623,31.199515066495312,0.0
2020-01-08T10:16:36.400000,-0.11445937480198007,-0.3067257201588722,0.13171284335071262,-22.180198057947287,-31.610495043482008,30.691386101472382,52.55494,-1.462623,31.07940594782159,0.0
2020-01-08T10:16:36.500000,0.12385990297600001,-0.142470100992,-0.08533992678399999,-22.340999321600002,-31.6440003584,30.45500032,52.55494,-1.462623,31.06979970048,0.0
2020-01-08T10:16:36.600000,-0.007880012288,-0.269804971008,0.011419997952,-21.4114998784,-31.96999936,30.9265001984,52.55494,-1.462623,30.7260002304,0.0
2020-01-08T10:16:36.700000,-0.02892502016,-0.26265013376,0.024675068159999997,-21.32500032,-31.1109999616,31.302500480000003,52.55494,-1.462623,31.0184999424,0.0
2020-01-08T10:16:36.800000,-0.038704927488,-0.433909972736,0.092354902528,-21.5429991168,-31.256500838399997,31.8739997184,52.55494,-1.462623,30.87989973504,142.82795852902143
2020-01-08T10:16:36.900000,0.051329973247999996,-0.422075104,0.004945179391999996,-20.3234998016,-32.3054997248,31.72500096,52.5548477496064,-1.46250794950912,30.475649776639997,142.82755207814802
2020-01-08T10:16:37.000000,0.024815184151800146,-0.49765431902751095,0.1989725671611687,-20.079697041003932,-32.00515175101301,33.02878798300575,52.554325,-1.461856,30.15657567639552,0.0
2020-01-08T10:16:37.100000,0.06913761985750169,-0.19719013056008272,-0.04467623507404995,-19.9016829856209,-32.202079101515466,33.29930699995691,52.554325,-1.461856,30.065851507232637,0.0
2020-01-08T10:16:37.200000,0.03685000192,-0.41827481472,-0.029255025408,-18.445000320000002,-31.31,33.9265001984,52.554325,-1.461856,30.264500057600003,0.0
2020-01-08T10:16:37.300000,0.039715001343999995,-0.19410009343999998,-0.061559993856,-18.6929992448,-31.234999679999998,34.15249984,52.554325,-1.461856,30.3004998272,0.0
2020-01-08T10:16:37.400000,0.03446037938620949,-0.35023472924883153,-0.05442475489947584,-17.652871199294356,-30.967426114991937,34.09742611499194,52.554325,-1.461856,30.099366403739115,0.0
2020-01-08T10:16:37.500000,-0.005249499635393232,-0.5183304151862598,-0.049934418103113894,-17.24484989061797,-31.790808651265262,34.92080865126526,52.554325,-1.461856,30.208970078972275,0.0
2020-01-08T10:16:37.600000,-0.020951586293924015,-0.4689213754690098,0.034000076024193276,-15.993333091986687,-31.443333816026623,34.51575785001513,52.554325,-1.461856,29.882151497599033,0.0
2020-01-08T10:16:37.700000,-0.1153168217453128,-0.7039049392823378,0.13491880131092363,-15.3728711305322,-32.09970291307907,34.94950495651799,52.554325,-1.461856,29.809851456539537,0.0
2020-01-08T10:16:37.800000,-0.052295086591999995,-0.619995043072,0.051025020160000004,-13.9939997184,-31.686000281600002,34.92499968,52.554325,-1.461856,29.5564999424,0.0
2020-01-08T10:16:37.900000,-0.16804242693014826,-0.686154577871788,0.0973303737338998,-13.506363224977308,-32.08878798300575,34.58484879201694,52.554325,-1.461856,29.505757669005142,0.0
2020-01-08T10:16:38.000000,-0.1295227452342148,-0.6925772000172357,0.15711581016447376,-12.573762188522574,-32.18980194205272,35.09009902897365,52.554325,-1.461856,29.6083366072628,0.0
2020-01-08T10:16:38.100000,0.09388180616933742,-0.4654818369410347,-0.061693777911093074,-10.97121201699425,-31.794242149984875,35.25909094200181,52.554325,-1.461856,29.400030350202602,0.0
2020-01-08T10:16:38.200000,0.06801286666953928,-0.4442504632082143,0.13374749031128097,-10.632574144997479,-31.469802043438918,35.251386101472384,52.554325,-1.461856,29.44844552899519,0.0
2020-01-08T10:16:38.300000,0.022804972288,-0.19725008512000003,-0.155480002048,-9.652499839999999,-31.8679994368,34.9955002368,52.554325,-1.461856,29.326700037120002,0.0
2020-01-08T10:16:38.400000,-0.0017599477760000017,-0.288564907264,-0.160180008448,-9.2329991168,-31.261000601600003,35.263499801600005,52.554325,-1.461856,29.391600066560002,0.0
2020-01-08T10:16:38.500000,0.06516998963199999,-0.1706500224,-0.17983003596799998,-8.0419999232,-32.0044997632,34.96249984,52.554325,-1.461856,29.45734990336,0.0
2020-01-08T10:16:38.600000,0.047748471629270865,-0.22353644739461986,-0.2130847959371016,-7.674847524947055,-31.746060809011194,34.77878798300575,52.554325,-1.461856,29.332787892500757,0.0
2020-01-08T10:16:38.700000,0.026460395507577353,-0.3342326613117854,-0.13558614101300023,-6.0711880435250976,-32.01089105799038,34.772079101515466,52.554325,-1.461856,29.37174258550025,0.0
2020-01-08T10:16:38.800000,-0.005570117632,-0.28717522688,-0.11398482201599999,-5.1489987584,-31.7680000768,33.8604999168,52.554325,-1.461856,29.47245002752,0.0
2020-01-08T10:16:38.900000,-0.160629995008,-0.550669838592,0.08590484428799999,-3.4804999168,-31.936000281600002,33.63749952,52.554325,-1.461856,29.51395002112,0.0
2020-01-08T10:16:39.000000,-0.126609883136,-0.440655445248,-0.06854977664,-3.2679995648,-32.206499558400004,32.84999936,52.554325,-1.461856,29.49114978304,0.0
2020-01-08T10:16:39.100000,0.0334750208,-0.965264715264,0.204594899712,-2.5489993984,-31.7805006848,31.9069996032,52.554325,-1.461856,29.262400253440003,0.0
2020-01-08T10:16:39.200000,0.031879875328,-0.637305214208,0.09667510784,-1.67499968,-32.6239997184,31.276499558399998,52.554325,-1.461856,29.61520006912,0.0
2020-01-08T10:16:39.300000,-0.12504845352827249,-0.909906017547625,0.2268544982273951,-1.013635507952803,-32.36363677502269,30.699090942001817,52.554325,-1.461856,29.69503025969761,0.0
2020-01-08T10:16:39.400000,-0.07560197956561082,-0.8173197855174879,0.14998217579860645,0.48901001442218733,-33.00950495651799,30.542475116023837,52.554325,-1.461856,29.686138650701718,0.0
2020-01-08T10:16:39.500000,-0.084535060736,-0.677379991808,0.140590046464,1.4685001216,-33.013499801600005,29.4204999168,52.554325,-1.461856,29.9447497856,0.0
2020-01-08T10:16:39.600000,-0.12003480729600001,-0.67820004992,0.17723489305600001,1.8070007551999998,-32.7034998016,28.9544984832,52.554325,-1.461856,29.69465014784,0.0
2020-01-08T10:16:39.700000,0.142560028416,-0.759485063936,0.058840100864,2.7919999232,-32.3919997952,26.9204999168,52.554325,-1.461856,29.834749759999998,0.0
2020-01-08T10:16:39.800000,0.12539071030903576,-0.8100816939431474,0.18640603745872325,2.7566669080133117,-32.23363677502269,26.5736355079528,52.554325,-1.461856,29.569030495010587,0.0
2020-01-08T10:16:39.900000,-0.166212,-0.655772,0.1718,3.33,-32.8108,25.1396,52.554325,-1.461856,29.86648,0.0
2020-01-08T10:16:40.000000,-0.08720396318666974,-0.7869563927802885,0.2418009639293237,4.3293068985707075,-32.728118956431814,24.531485130446022,52.554325,-1.461856,29.834782156535226,0.0
2020-01-08T10:16:40.100000,-0.122930052608,-0.47897521919999997,0.051365123584,4.2295007232,-33.7989993984,24.2479994368,52.554325,-1.461856,29.66920006912,0.0
2020-01-08T10:16:40.200000,-0.13979980812941697,-0.663554159738725,0.1509088570771025,5.143030132990622,-32.96212107499244,23.424242149984874,52.554325,-1.461856,29.79872740930753,0.0
2020-01-08T10:16:40.300000,0.11384749740831519,-0.2013317683528037,-0.1050256755489429,4.9196039854916345,-32.780099028973645,22.762376087050193,52.554325,-1.461856,30.017920797098327,0.0
2020-01-08T10:16:40.400000,-0.11667273188025414,-0.8584391873686061,0.40826346029028826,5.186060809011194,-32.94909094200181,21.35757524197156,52.554325,-1.461856,30.06060606280012,0.0
2020-01-08T10:16:40.500000,-0.100856,-0.593364,0.15193199999999998,5.46,-33.0496,20.500799999999998,52.554325,-1.461856,30.01616,0.0
2020-01-08T10:16:40.600000,0.010879999999999999,-0.87146,0.26154,5.2196,-33.31,20.150000000000002,52.554325,-1.461856,29.81684,0.0
2020-01-08T10:16:40.700000,-0.03463069289865689,-0.7669653064017783,0.353373240886014,5.199406028930553,-33.34960398549163,19.760989985577815,52.554325,-1.461856,30.02800986234288,0.0
2020-01-08T10:16:40.800000,-0.022264953344,-0.457110113536,0.150945082112,5.8454995968,-33.56,18.77249984,52.554325,-1.461856,29.7017499904,0.0
2020-01-08T10:16:40.900000,0.010366560474142722,-0.5124148058409336,0.20640889689929898,5.510000724039935,-33.62666690801331,18.484242149984873,52.554325,-1.461856,29.637787693389775,0.0
2020-01-08T10:16:41.000000,-0.15429603985491636,-0.047212915334916644,-0.07207622392156764,6.530197956561081,-34.049108942009624,18.01089105799037,52.554325,-1.461856,29.335633653629245,0.0
2020-01-08T10:16:41.100000,-0.13923992678400002,-0.301314508544,0.012244869632,6.1590006784,-34.1794994432,17.7590000384,52.554325,-1.461856,29.26045002752,0.0
2020-01-08T10:16:41.200000,-0.021359911936000002,0.303744796672,-0.13655489612799998,6.7884988416,-33.4114998784,17.6044991232,52.554325,-1.461856,29.2467497856,0.0
2020-01-08T10:16:41.300000,0.078784928256,0.055735094016000006,-0.003655021568,5.4090006784,-33.3805005568,16.552500480000003,52.554325,-1.461856,28.986300103679998,0.0
2020-01-08T10:16:41.400000,-0.015089993984,0.17654998272,-0.011989913344000003,6.1419992832,-34.08249984,17.07749952,52.554325,-1.461856,29.1742502144,0.0
2020-01-08T10:16:41.500000,-0.027905088768000005,0.10022977228799998,0.128540108544,5.1059996416,-33.98250048,16.4865001984,52.554325,-1.461856,29.40439976704,0.0
2020-01-08T10:16:41.600000,-0.14323498905600002,-0.160589822464,0.223589790464,4.5729997568,-34.5269996032,16.7590000384,52.554325,-1.461856,29.02479970048,0.0
2020-01-08T10:16:41.700000,-0.101069882112,-0.003985337855999999,-0.004389785343999995,4.2965001983999995,-34.1590006784,16.84750016,52.554325,-1.461856,28.63465003264,0.0
2020-01-08T10:16:41.800000,0.05347499136,-0.416864847104,0.264394930432,4.48499968,-34.9294994432,17.0329998848,52.554325,-1.461856,28.71895017472,0.0
2020-01-08T10:16:41.900000,0.02167491328,-0.23166507622399998,0.194710096896,4.1080002048,-34.2830003968,16.776499558399998,52.554325,-1.461856,28.9239998848,0.0
2020-01-08T10:16:42.000000,-0.086989972224,-0.30888489753599996,0.291644864512,4.4730003968,-34.613499161600004,16.3490006784,52.554325,-1.461856,28.79755011328,0.0
2020-01-08T10:16:42.100000,-0.044834977536,-0.176955017728,0.12268004684799999,4.92499968,-33.53750016,17.28750016,52.554325,-1.461856,28.98790017024,0.0
2020-01-08T10:16:42.200000,0.0061818948642295805,-0.16151501038221552,0.18970304769095908,4.546969867009379,-33.79696986700938,17.519697041003933,52.554325,-1.461856,29.176424106392496,0.0
2020-01-08T10:16:42.300000,0.069712,0.033552000000000005,0.22295199999999998,4.6612,-34.010400000000004,17.6588,52.554325,-1.461856,29.05816,0.0
2020-01-08T10:16:42.400000,-0.22851386709789598,-0.11156536115032785,0.2415990005855053,3.968712927501261,-33.8688119564749,17.900297086920926,52.554325,-1.461856,29.56813863042448,0.0
2020-01-08T10:16:42.500000,-0.24032484608,-0.142704610048,0.11674480051200001,4.44,-34.4714998784,18.38,52.554325,-1.461856,29.780950315520002,0.0
2020-01-08T10:16:42.600000,-0.03432499328,0.299359676416,-0.116204863488,4.4114998784,-34.27249984,18.3604999168,52.554325,-1.461856,30.24980021248,0.0
2020-01-08T10:16:42.700000,-0.051920113152,-0.05416967475199999,0.03592487552,4.3535004416000005,-34.02249984,18.40000064,52.554325,-1.461856,30.58915024384,0.0
2020-01-08T10:16:42.800000,-0.131384697856,0.31830974617600005,-0.12704498995199998,4.8739997184,-33.77249984,19.2214998784,52.554325,-1.461856,30.98815032064,0.0
2020-01-08T10:16:42.900000,0.263179971328,0.028045199871999996,-0.081689863424,4.4909999616,-33.6635004416,19.1545004032,52.554325,-1.461856,31.420900029440002,0.0
2020-01-08T10:16:43.000000,0.174984786176,0.250389816064,0.09504998015999999,4.3934998016,-34.1284994816,19.802500480000003,52.554325,-1.461856,31.576100495360002,0.0
2020-01-08T10:16:43.100000,-0.08304988928000001,-0.003980043007999998,0.068820000512,4.0819997952,-33.44,20.3934998016,52.554325,-1.461856,32.241050030080004,0.0
2020-01-08T10:16:43.200000,0.04124747092758002,0.0037120345117759718,0.06742078716048382,3.8753466892419373,-33.486039712875,20.184950625044355,52.554325,-1.461856,32.40456464874839,0.0
2020-01-08T10:16:43.300000,-0.06641834592648907,0.41399063038182865,0.01081345321396987,4.268383705956278,-33.73161629404372,20.420808651265265,52.554325,-1.461856,33.165464268536766,0.0
2020-01-08T10:16:43.400000,0.03837485696,0.513329421568,-0.132969455872,4.4355002368,-33.6485001216,20.033000396800002,52.554325,-1.461856,33.523900170240005,0.0
2020-01-08T10:16:43.500000,-0.106164806144,-0.16495961625600003,0.474709509376,4.7319999232,-33.8009999616,20.5705000448,52.554325,-1.461856,33.82830033408,0.0
2020-01-08T10:16:43.600000,0.131964917504,0.289229763328,-0.15642491264,4.4694993152,-33.7304999168,20.6570001152,52.554325,-1.461856,34.29360009216,0.0
2020-01-08T10:16:43.700000,0.055445140992,0.061795370752000006,-0.093710227456,3.5705000448,-33.62,20.8955003648,52.554325,-1.461856,34.559100610559994,0.0
2020-01-08T10:16:43.800000,0.254655051008,0.485409706496,-0.35702483456,3.70500032,-33.592999884799994,21.4265001984,52.554325,-1.461856,35.403000140799996,0.0
2020-01-08T10:16:43.900000,0.22741959475200002,0.20916548454400002,-0.173495154432,4.05499968,-33.4580000768,21.7365001984,52.554325,-1.461856,35.65480027648,0.0
2020-01-08T10:16:44.000000,-0.28240487884800003,0.8186498547200001,-0.36349493555199996,3.47999936,-33.59750016,22.0195000832,52.554325,-1.461856,36.08890028544,0.0
2020-01-08T10:16:44.100000,-0.130110036736,0.617014962944,-0.267579955968,2.7980007168,-33.7814998784,22.1480000768,52.554325,-1.461856,36.497100124160006,0.0
2020-01-08T10:16:44.200000,-0.203005102848,0.582920064512,-0.23362510464,3.7409999616,-33.592999884799994,22.3445004032,52.554325,-1.461856,36.75380039168,0.0
2020-01-08T10:16:44.300000,-0.25090462156800003,0.579619620352,-0.321944783872,3.5684994816,-33.561500518399995,22.8980000768,52.554325,-1.461856,37.34855031808,0.0
2020-01-08T10:16:44.400000,0.2218817102340459,0.07693030857030557,-0.041354568821288844,2.983030676020573,-34.23030295899606,22.97121201699425,52.554325,-1.461856,37.771,0.0
2020-01-08T10:16:44.500000,0.1007353516365197,0.11285689707532183,-0.09431570737657397,3.5113724879968475,-33.97411746399054,23.056274818854675,52.554325,-1.461856,37.883470729375034,0.0
2020-01-08T10:16:44.600000,0.34280097357512823,0.23551999488000333,-0.16959684137577932,3.143938492807439,-33.20696984115081,24.29939325453365,52.554325,-1.461856,38.55969757886217,0.0
2020-01-08T10:16:44.700000,0.272194810112,0.155810291456,-0.095015073024,2.4714998784,-33.3670002432,23.7634998016,52.554325,-1.461856,39.0782503552,0.0
2020-01-08T10:16:44.800000,0.038105077248,0.510334861056,-0.209865076224,2.34750016,-33.6794999552,23.4339997184,52.554325,-1.461856,39.60340022784,0.0
2020-01-08T10:16:44.900000,0.1251696407468989,0.38489112301179923,-0.3209333689319635,2.56,-33.601818115996366,23.211515700030255,52.554325,-1.461856,39.92948493350469,0.0
2020-01-08T10:16:45.000000,0.05792278477483392,0.6865247339245839,-0.37070890753831764,2.5203960145083655,-33.49049504348201,24.06,52.554325,-1.461856,40.14131688257704,0.0
2020-01-08T10:16:45.100000,0.129294857472,0.5399700382720001,-0.345255011328,2.31,-33.5705005568,24.0509999616,52.554325,-1.461856,40.61345019392,0.0
2020-01-08T10:16:45.200000,-0.04915147587783378,0.5690271939056524,-0.3404362917260336,2.31,-34.17818134097368,23.943939190988807,52.554325,-1.461856,40.91781835130935,0.0
2020-01-08T10:16:45.300000,0.01504,0.434364,-0.204256,2.2908,-33.519999999999996,23.75,52.554325,-1.461856,41.27632,0.0
2020-01-08T10:16:45.400000,0.07016662015169235,0.40356269984288645,-0.11665680833655424,2.1696078687273803,-33.988627389957784,24.39882350579011,52.554325,-1.461856,41.85305873435767,0.0
2020-01-08T10:16:45.500000,0.22474173583851798,0.5409620227142259,-0.3135689471397763,1.9991923572215413,-34.14394015794455,24.526868493320716,52.554325,-1.461856,42.320554939258066,0.0
2020-01-08T10:16:45.600000,-0.013099857919999992,0.24247518848,-0.120330111488,1.63,-33.38749952,24.72750016,52.554325,-1.461856,42.867600117760006,0.0
2020-01-08T10:16:45.700000,0.1466605012942214,0.43137553520773486,-0.20955130210824918,1.6390909420018152,-32.90151570003025,25.024848792016943,52.554325,-1.461856,43.04793948060478,0.0
2020-01-08T10:16:45.800000,-0.014639603478560621,0.09928119564749031,0.10273266232564741,1.5315840580334625,-33.621683087007106,25.46990097102636,52.554325,-1.461856,43.24821786374201,0.0
2020-01-08T10:16:45.900000,-0.028690077184000004,0.138204896768,0.03830011647999999,0.6990000383999999,-32.94,25.3670002432,52.554325,-1.461856,43.69060038656,232.33837833861386
2020-01-08T10:16:46.000000,-0.117909943296,0.0032300090880000003,0.178269937152,0.7409999616,-33.004500275199995,25.69,52.554261999731196,-1.4619902505728,44.29310038015999,232.33875966918674
2020-01-08T10:16:46.100000,-0.038669983232,0.02632504704,0.084014953984,0.6239997183999999,-33.2679995648,25.6990000384,52.553905,-1.462751,44.83805017088,0.0
2020-01-08T10:16:46.200000,-0.01780909601028137,0.06661810151557074,0.05082434351557591,0.27878798300574836,-32.76575785001513,25.77878798300575,52.553905,-1.462751,45.098181938306624,0.0
2020-01-08T10:16:46.300000,-0.015556,0.015536000000000008,0.121552,0.4096,-33.1596,26.029600000000002,52.553905,-1.462751,45.412,0.0
2020-01-08T10:16:46.400000,0.017105927544350124,0.3004900362709141,-0.2623257008954937,0.2991089420096266,-32.91128707249874,26.42079202901673,52.553905,-1.462751,46.10792080723695,0.0
2020-01-08T10:16:46.500000,-0.080854951168,-0.11745453900799999,0.04254980992,0.5044997632,-32.4294999552,25.9069996032,52.553905,-1.462751,46.2927502464,0.0
2020-01-08T10:16:46.600000,-0.045205124608,0.38751954227200003,-0.150019744512,0.22750016,-32.511000601599996,25.3980000768,52.553905,-1.462751,46.718850421759996,0.0
2020-01-08T10:16:46.700000,-0.180129869568,-0.14412467456,0.129944746752,0.4114998784,-33.3009999616,25.5195000832,52.553905,-1.462751,47.342750272,0.0
2020-01-08T10:16:46.800000,-0.017147548994758344,0.23164937140713557,-0.13188992274390923,0.32425760141129234,-33.25,25.592871199294354,52.553905,-1.462751,47.73385155576734,0.0
2020-01-08T10:16:46.900000,-0.058223359657424784,-0.039182198656385274,0.22108639318573226,0.6269705832156766,-33.05484989061797,25.459191348734738,52.553905,-1.462751,47.97980754192978,0.0
2020-01-08T10:16:47.000000,0.044766650979134716,0.21225732508617365,-0.17625738300936858,-0.06393919098880582,-31.87,25.949090942001817,52.553905,-1.462751,48.52460638861809,0.0
2020-01-08T10:16:47.100000,0.015113857973137725,-0.11515936770494586,0.0860029475503826,0.15178211598074676,-31.80188114495439,26.069703014465276,52.553905,-1.462751,48.99999997972276,0.0
2020-01-08T10:16:47.200000,-0.031995078912,0.22092506624,-0.073529867008,-0.4180002048,-31.4670001152,26.4685001216,52.553905,-1.462751,48.93590045184,0.0
2020-01-08T10:16:47.300000,-0.110909889536,0.254164766464,0.103910003456,-0.7080000768,-31.4519992832,26.544499635199998,52.553905,-1.462751,49.532699985920004,0.0
2020-01-08T10:16:47.400000,0.022587830957361804,-0.03660599039612742,0.07598473077350737,-0.7539391909888059,-30.61363677502269,26.079697041003932,52.553905,-1.462751,49.55339408200787,0.0
2020-01-08T10:16:47.500000,-0.029887115080944212,0.07163564333347695,-0.0612999716118632,-0.2308909566041705,-31.546237811477425,26.367425855002523,52.553905,-1.462751,49.760851476816775,0.0
2020-01-08T10:16:47.600000,0.09025002496000001,0.092710098176,0.12217476735999999,0.80499968,-33.0554997248,27.31,52.553905,-1.462751,49.69205000448,0.0
2020-01-08T10:16:47.700000,0.062964742144,0.21567496832,-0.19715004416,0.3694999552,-32.6704999168,27.225999641599998,52.553905,-1.462751,49.7827503616,0.0
2020-01-08T10:16:47.800000,-0.25303988710400005,0.168709979136,-0.174184651776,0.24549972479999999,-32.6440003584,26.8535004416,52.553905,-1.462751,50.25594996992,0.0
2020-01-08T10:16:47.900000,-0.09628997094399999,0.155520061952,0.283529979648,-0.18600028159999998,-32.9804994048,27.40249984,52.553905,-1.462751,50.1852498688,0.0
2020-01-08T10:16:48.000000,-0.067255040768,0.22872496128,0.159584586496,-0.6545004032,-32.1990000384,27.265000320000002,52.553905,-1.462751,50.049400163840005,0.0
2020-01-08T10:16:48.100000,-0.12792502783999998,0.133664813824,-0.336679774208,-1.26500032,-32.1179994368,27.65249984,52.553905,-1.462751,50.23729987328,0.0
2020-01-08T10:16:48.200000,-0.13312986444799998,-0.08055485900800001,0.012160208896000002,-1.7080000767999999,-31.37,27.533000396800002,52.553905,-1.462751,50.11430019328,0.0
2020-01-08T10:16:48.300000,0.033174941439999994,0.03187968076799999,0.293155015168,-1.77249984,-31.40750016,28.0044997632,52.553905,-1.462751,50.37370001152,0.0
2020-01-08T10:16:48.400000,-0.028219930112,-0.343244791552,0.26094977664,-1.4189993984,-31.84500096,27.7185001216,52.553905,-1.462751,50.365299898880004,0.0
2020-01-08T10:16:48.500000,0.07459004262400001,-0.103945160192,0.016215221504000003,-0.6680002048,-33.12,27.8604999168,52.553905,-1.462751,50.28605023488,0.0
2020-01-08T10:16:48.600000,0.11531493222400001,-0.285334866176,0.25932478208,-0.8274995199999999,-33.19500032,27.8160002816,52.553905,-1.462751,50.569949880319996,0.0
2020-01-08T10:16:48.700000,0.004769622645900511,-0.06356953757120803,-0.08073654695011105,-0.27484879201694257,-33.610909057998185,28.180909057998186,52.553905,-1.462751,50.45236378610826,0.0
2020-01-08T10:16:48.800000,-0.10066336029361445,0.1677603863828191,-0.27167419873216553,-0.75,-33.55049504348201,28.209207970983268,52.553905,-1.462751,50.70681189564318,0.0
2020-01-08T10:16:48.900000,-0.045994982912,0.11593012428800001,0.184084845056,-0.82500032,-33.5,28.6480000768,52.553905,-1.462751,50.77939979264,0.0
2020-01-08T10:16:49.000000,-0.025340008704,0.25654989568000003,-0.042865090304,-1.1839997184,-33.42499968,28.7034998016,52.553905,-1.462751,50.53490013184,0.0
2020-01-08T10:16:49.100000,-0.004596852753549735,0.08509078995342871,-0.10570888422860009,-0.8009090579981848,-33.01818188400363,28.46878798300575,52.553905,-1.462751,50.73878798300575,0.0
2020-01-08T10:16:49.200000,0.1782168328977951,-0.06368314581110229,0.15530689350139787,-0.7595049565179922,-33.14059407245565,28.709207970983268,52.553905,-1.462751,50.91663367390649,0.0
2020-01-08T10:16:49.300000,0.128939746304,0.127565010944,-0.163055027968,-0.9975008000000001,-33.2965001984,29.1390000384,52.553905,-1.462751,51.02765009664,0.0
2020-01-08T10:16:49.400000,-0.199734964736,0.13557497216,-0.16596985395199998,-1.8814992384,-33.475999641600005,29.1059996416,52.553905,-1.462751,51.15224998400001,0.0
2020-01-08T10:16:49.500000,-0.118669853952,0.09658999142399999,0.037360039936,-0.8805000448,-32.9534998016,28.6104999168,52.553905,-1.462751,51.17360018176,0.0
2020-01-08T10:16:49.600000,0.07753500953600001,0.08272498944,0.05871986483199999,-0.9670001152,-32.774000358399995,28.5,52.553905,-1.462751,51.40644996352,0.0
2020-01-08T10:16:49.700000,0.089134995456,0.029459832575999996,-0.085654850048,-1.04499968,-33.2785001216,28.5465001984,52.553905,-1.462751,51.427600296959994,0.0
2020-01-08T10:16:49.800000,0.08770607728091973,-0.15083924167160134,0.0874241480247932,-0.7063639490172451,-33.47787892500756,28.896363949017243,52.553905,-1.462751,51.84987888880557,0.0
2020-01-08T10:16:49.900000,0.09491781000732516,0.08775742767995418,-0.055510889131652516,-1.2185148695539767,-33.65039601450837,29.280197956561082,52.553905,-1.462751,51.99332672464268,0.0
2020-01-08T10:16:50.000000,-0.030178883375267314,0.1032878762098578,-0.06005462131418421,-1.2851512079830576,-33.42939390099788,28.645454166979125,52.553905,-1.462751,51.97130319430905,0.0
2020-01-08T10:16:50.100000,-0.16692177522171894,0.06178710494232392,-0.14795047638842068,-0.8591089420096267,-33.420693101429286,28.229505057904195,52.553905,-1.462751,52.23418812463406,0.0
2020-01-08T10:16:50.200000,-0.10218414323806434,-0.14471783885717762,0.04472285796842842,-1.1021781756612898,-33.642475135096774,29.03643542222177,52.553905,-1.462751,52.362604148712904,0.0
2020-01-08T10:16:50.300000,-0.0937674724217647,-0.18494041239352704,0.249345476548803,-1.0707065613703008,-33.43222177400586,28.53535328068515,52.553905,-1.462751,52.830737289187475,0.0
2020-01-08T10:16:50.400000,-0.23007484672,-0.139319835392,0.18932482304,-1.5180000768,-33.725999641600005,28.7409999616,52.553905,-1.462751,52.92195008512,0.0
2020-01-08T10:16:50.500000,-0.019419969792,0.038514825983999995,-0.027474922239999998,-1.6019999232000002,-33.1284994816,28.6990000384,52.553905,-1.462751,53.058250099199995,0.0
2020-01-08T10:16:50.600000,0.016784983296,-0.114479666688,0.047959881216000005,-1.5285001216,-32.59000064,28.7965001984,52.553905,-1.462751,53.259600296959995,0.0
2020-01-08T10:16:50.700000,-0.010305020928000001,0.284054811648,-0.09362993100799999,-1.57749952,-33.40249984,29.06,52.553905,-1.462751,53.681600117760006,0.0
2020-01-08T10:16:50.800000,-0.030554518138493324,0.07206680483762112,0.0229394842249799,-0.9960608090111941,-33.17939390099788,29.10848502400968,52.553905,-1.462751,53.84830306760206,0.0
2020-01-08T10:16:50.900000,0.006757422610644031,0.33421191186497384,0.06325736279278435,-1.3004950434820077,-33.18970301446527,29.340396014508364,52.553905,-1.462751,53.90378217681248,0.0
2020-01-08T10:16:51.000000,0.009060121856000001,0.537609770496,-0.454779958528,-1.3055002368,-33.475999641600005,29.1390000384,52.553905,-1.462751,53.97405035008,0.0
2020-01-08T10:16:51.100000,0.143584883456,0.287310232576,-0.359784829696,-1.5929998848,-33.0285001216,29.274000358400002,52.553905,-1.462751,54.47305014527999,0.0
2020-01-08T10:16:51.200000,0.007265078784,0.5267347036159999,-0.088089805824,-1.5420004351999999,-33.236500198399995,29.7785001216,52.553905,-1.462751,54.69780013568,0.0
2020-01-08T10:16:51.300000,0.08238474163410642,0.1044635326942819,0.1699666672700333,-2.1957578500151276,-33.3772722829755,29.84454510898094,52.553905,-1.462751,54.8714848248987,0.0
2020-01-08T10:16:51.400000,-0.09484456202427692,-0.08024853028025682,0.18305050274883342,-2.6009900869640155,-32.748613898527616,29.40980204343892,52.553905,-1.462751,54.8378514869554,0.0
2020-01-08T10:16:51.500000,-0.142879934208,-0.204364977664,0.21564986368,-2.3679994368,-32.956499558400004,29.9955002368,52.553905,-1.462751,54.8297499008,0.0
2020-01-08T10:16:51.600000,-0.06510004096,-0.20165511500799999,0.094885257216,-1.7700006400000001,-32.4645004032,30.3670002432,52.553905,-1.462751,54.7115000576,0.0
2020-01-08T10:16:51.700000,-0.1048029770970653,-0.3006573811992687,0.38313617044934434,-2.5442421499848726,-33.07575785001513,30.632424033988503,52.553905,-1.462751,54.80224247580284,0.0
2020-01-08T10:16:51.800000,-0.03743862332744448,-0.08977530460217321,0.11870794259513194,-2.051881144954389,-33.450891057990376,30.321089115937657,52.553905,-1.462751,54.86774256522301,0.0
2020-01-08T10:16:51.900000,-0.04227968204799999,-0.39269425075200004,0.170939442944,-1.76500032,-33.095499596799996,30.45500032,52.553905,-1.462751,54.80610006016,0.0
2020-01-08T10:16:52.000000,0.35509989376,0.47683446425600007,-0.45582951756799994,-2.2170001152,-32.5795000832,31.0015005184,52.553905,-1.462751,54.939400227840004,0.0
2020-01-08T10:16:52.100000,0.17431803816207633,-0.047229624352566085,0.09739968323252803,-2.3987879830057484,-32.66121201699425,31.614242149984875,52.553905,-1.462751,55.169423979685504,0.0
2020-01-08T10:16:52.200000,-0.04417722536378637,0.922900939596635,-0.37460394899260135,-2.6883169129928954,-32.63782186951089,31.050593971069446,52.553905,-1.462751,54.75682177826331,0.0
2020-01-08T10:16:52.300000,-0.029755022848000003,0.515340067584,-0.289830046208,-3.3144997632,-33.342999884799994,30.497500799999997,52.553905,-1.462751,54.71094994432,0.0
2020-01-08T10:16:52.400000,-0.05556968056909539,0.6265697746942871,-0.34103329652796993,-3.0378789250075635,-33.20818188400363,31.550909057998183,52.553905,-1.462751,54.60487867159359,0.0
2020-01-08T10:16:52.500000,-0.013000000000000001,0.6269600000000001,-0.22259600000000002,-3.4004,-33.220400000000005,31.5,52.553905,-1.462751,54.439879999999995,0.0
2020-01-08T10:16:52.600000,0.08157199999999999,0.04864799999999999,0.047132,-4.2492,-32.7404,31.6008,52.553905,-1.462751,54.4668,0.0
2020-01-08T10:16:52.700000,0.091488,0.23177599999999998,-0.159584,-4.4704,-32.709199999999996,32.198800000000006,52.553905,-1.462751,54.12424,0.0
2020-01-08T10:16:52.800000,0.011700981164978162,-0.05809000382732918,0.12553459322588084,-4.049108942009626,-32.84960398549163,32.620198057947285,52.553905,-1.462751,53.72907920290167,0.0
2020-01-08T10:16:52.900000,-0.053109054377985056,0.7294302651279094,-0.3611514487263362,-4.367575966011496,-32.86151443296037,33.00666690801331,52.553905,-1.462751,53.67275752419715,0.0
2020-01-08T10:16:53.000000,-0.006817828256841669,0.6656831650744808,-0.2679366397063856,-4.7692079709832695,-31.85930699995691,33.34990097102636,52.553905,-1.462751,53.45723753773468,0.0
2020-01-08T10:16:53.100000,-0.06336500966400001,0.693730235648,-0.322590017024,-5.1990000384,-32.40249984,33.1704999168,52.553905,-1.462751,52.6474996224,0.0
2020-01-08T10:16:53.200000,-0.044444864512000005,0.8392992857599999,-0.252169603072,-5.25,-32.1239997184,33.192000563200004,52.553905,-1.462751,52.0724996864,0.0
2020-01-08T10:16:53.300000,0.11869690886664477,-0.03493609442515107,0.19696941448441896,-5.41060664203207,-31.76818188400363,33.902121074992436,52.553905,-1.462751,51.57145423938312,0.0
2020-01-08T10:16:53.400000,0.04266400000000001,0.238524,-0.161744,-6.3995999999999995,-31.9212,33.6596,52.553905,-1.462751,50.941359999999996,0.0
2020-01-08T10:16:53.500000,0.14543663869252355,-0.4762029475503826,0.2591277291264818,-6.939703014465277,-32.12029698553472,33.53960398549163,52.553905,-1.462751,49.93476225949292,0.0
2020-01-08T10:16:53.600000,0.12902475008,-0.21015467852799996,0.263169789952,-7.3760002816,-31.7785001216,33.7785001216,52.553905,-1.462751,48.92629987328,0.0
2020-01-08T10:16:53.700000,-0.141294737152,0.188689880064,-0.005029954048000001,-7.8160002816,-31.9294999552,34.006000281599995,52.553905,-1.462751,48.54259908096,0.0
2020-01-08T10:16:53.800000,0.22052005427200003,0.06525015296,0.024979867648000004,-8.2545002752,-31.964500403200002,34.4265001984,52.553905,-1.462751,47.2064995072,0.0
2020-01-08T10:16:53.900000,0.22587971532800002,0.26083996774400003,-0.11524984831999999,-8.6860002816,-32.4339997184,34.7185001216,52.553905,-1.462751,46.4649996288,0.0
2020-01-08T10:16:54.000000,-0.149709989376,0.262970191872,0.041619809792,-9.06,-32.0509999616,34.91750016,52.553905,-1.462751,45.8639995392,0.0
2020-01-08T10:16:54.100000,-0.10024484915199999,0.40445951641600003,-0.14352971212799998,-9.088500121600001,-31.96249984,35.157000115200006,52.553905,-1.462751,44.945848693760006,0.0
2020-01-08T10:16:54.200000,0.10530502220799999,-0.178414746624,0.199439832064,-9.2965001984,-31.8340003584,35.245499724800005,52.553905,-1.462751,43.138099688960004,0.0
2020-01-08T10:16:54.300000,0.0879513455506453,0.13606961721560099,-0.0028575006658581557,-9.635757850015128,-32.21606026598124,34.889090942001815,52.553905,-1.462751,42.63499967418203,0.0
2020-01-08T10:16:54.400000,-0.1354930446530184,0.03437130086102233,0.09318117537024974,-10.050495043482009,-31.69,34.97960398549163,52.553905,-1.462751,41.8857721218358,0.0
2020-01-08T10:16:54.500000,0.03834985984000001,0.16340505932799998,-0.028985065216,-9.9714998784,-31.6419997952,35.2080000768,52.553905,-1.462751,40.393999193599996,0.0
2020-01-08T10:16:54.600000,-0.16896509030399998,0.232434958336,-0.08073985126399999,-9.77249984,-31.455500364800002,35.188499481600005,52.553905,-1.462751,39.06379889408,0.0
2020-01-08T10:16:54.700000,-0.204704640768,0.155304907008,0.116514998784,-9.747500800000001,-31.86499968,34.6695007232,52.553905,-1.462751,37.39834916096,0.0
2020-01-08T10:16:54.800000,0.280485034496,0.006599892480000005,0.105809961216,-10.81,-31.3364995584,35.5729997568,52.553905,-1.462751,36.05944904192,216.9602554453207
2020-01-08T10:16:54.900000,0.24004963199999999,-0.041744596992000005,0.005084790015999999,-10.81,-30.9375008,35.32500032,52.553781249472,-1.46290415065344,34.65514943744,216.96079792779906
2020-01-08T10:16:55.000000,-0.2328666093468384,0.486363610528575,-0.2512544638354981,-10.932727717024507,-31.924242149984874,35.69393919098881,52.55308,-1.463772,33.766181304771685,0.0
2020-01-08T10:16:55.100000,-0.12260790710996093,0.39898610856941535,-0.08731284740616073,-11.570891057990373,-31.47940592754435,35.38,52.55308,-1.463772,32.88138608119514,0.0
2020-01-08T10:16:55.200000,-0.03709707539583004,0.17032735681463804,0.0860514179546389,-11.319090942001816,-31.418485024009684,35.30424214998487,52.55308,-1.463772,32.357424088291495,0.0
2020-01-08T10:16:55.300000,-0.18982771594627545,0.24650689654298394,-0.05666435159721289,-11.281287072498738,-31.729603985491636,35.01782186951089,52.55308,-1.463772,32.0351979666997,0.0
2020-01-08T10:16:55.400000,-0.09544835035258159,-0.016572643185361984,-0.05472135193771188,-10.819090942001816,-31.806666183973377,35.67424214998487,52.55308,-1.463772,31.604697022902936,0.0
2020-01-08T10:16:55.500000,0.1045207869597066,0.1088425713061838,-0.23673463175263795,-10.692574144997478,-31.020396014508364,35.33871292750126,52.55308,-1.463772,31.644861359436902,0.0
2020-01-08T10:16:55.600000,0.06628183513093487,0.08266060084971258,-0.05862425663078359,-9.834848792016942,-30.85696986700938,35.82969704100393,52.55308,-1.463772,31.418272717399454,0.0
2020-01-08T10:16:55.700000,0.08514950029275266,0.08679802753142339,-0.11473863549378882,-10.20069300004309,-31.070891057990373,35.76098998557781,52.55308,-1.463772,31.372108891316525,0.0
2020-01-08T10:16:55.800000,0.01782487936,0.13859494451200002,-0.2653498688,-9.5359996416,-30.9045004032,34.725999641600005,52.55308,-1.463772,31.192999936,0.0
2020-01-08T10:16:55.900000,-0.11671808884487186,0.09223343228545791,-0.1246758791267044,-9.182727717024507,-31.458181884003633,34.27878798300575,52.55308,-1.463772,31.032696697084965,0.0
2020-01-08T10:16:56.000000,0.03541683695324322,0.18486431813976595,-0.2820148320410817,-9.662475116023835,-31.56,34.459009913035985,52.55308,-1.463772,30.655990127518496,0.0
2020-01-08T10:16:56.100000,0.086980031488,-0.10976988723199999,-0.11437998028799999,-8.6545004032,-31.56,34.5705000448,52.55308,-1.463772,30.85284982016,0.0
2020-01-08T10:16:56.200000,0.0980498688,-0.0278752896,-0.045809819136000005,-9.1239997184,-31.5795000832,34.6390000384,52.55308,-1.463772,30.588199889920002,0.0
2020-01-08T10:16:56.300000,-0.08272502784,-0.38377487744,0.16778988646399998,-8.7304999168,-31.69,34.539999359999996,52.55308,-1.463772,30.417699896320002,0.0
2020-01-08T10:16:56.400000,-0.10438808258899152,-0.2520099743493557,0.030767359301653606,-8.556138462786288,-31.652871199294356,33.67069302363306,52.55308,-1.463772,30.293366368254034,0.0
2020-01-08T10:16:56.500000,-0.0208999663019968,-0.4156572536911069,0.10704287796620796,-8.028572693645966,-31.528570734459738,33.52428599416947,52.55308,-1.463772,30.366857167486913,0.0
2020-01-08T10:16:56.600000,-0.02168612276348373,-0.3516475379627963,0.10309208680686689,-7.06,-31.97128707249874,33.251386101472384,52.55308,-1.463772,30.29097026089205,0.0
2020-01-08T10:16:56.700000,0.108184987136,-0.477205063168,0.161174976,-6.9189993984,-31.5930003968,33.1185007616,52.55308,-1.463772,29.99505003008,0.0
2020-01-08T10:16:56.800000,0.052054833408000004,-0.51714981248,0.12485998105599999,-6.1485001216,-32.1109999616,33.9979994368,52.55308,-1.463772,30.00034985216,0.0
2020-01-08T10:16:56.900000,-0.145694899712,-0.307295167232,0.098934996736,-6.1419992832,-32.1065001984,33.2695000832,52.55308,-1.463772,29.78029989888,0.0
